mouse_time,condition_label,target,rotation_deg,cursorjump,targetjump,arrow_offset,aiming_target,aiming_direction,aiming_type,feedback_type,hold_duration,hold_target,phase,trialtype,mousex_rel,mousey_rel,step,points,cumulativetime,version,trials.thisRepN,trials.thisTrialN,trials.thisN,trials.thisIndex,trials.ran,participant,condition,qualtrics,group,date,expName,psychopyVersion,OS,frameRate,home_x,home_y,target_x,target_y,cursor_x,cursor_y,selected,max_v,movement
0.001,cursorjump,315,0,0.5,10,,0,,0,1,0.5,FALSE,practice,1,0,0.007556,1,0,14.6457,4,0,0,0,0,1,227368,4,SV_73ADPjbMtd0KUBg,304,2021-10-21_16h13.08.584,implicit_time,2021.1.4,Linux x86_64,59.95563283,0,0,NA,NA,NA,NA,0,0,0
0.0253,cursorjump,315,0,0.5,10,,0,,0,1,0.5,FALSE,practice,1,0,0.007556,1,0,14.6457,4,0,0,0,0,1,227368,4,SV_73ADPjbMtd0KUBg,304,2021-10-21_16h13.08.584,implicit_time,2021.1.4,Linux x86_64,59.95563283,0,0,NA,NA,NA,NA,0,0,0
0.0311,cursorjump,315,0,0.5,10,,0,,0,1,0.5,FALSE,practice,1,0,0.007556,1,0,14.6457,4,0,0,0,0,1,227368,4,SV_73ADPjbMtd0KUBg,304,2021-10-21_16h13.08.584,implicit_time,2021.1.4,Linux x86_64,59.95563283,0,0,NA,NA,NA,NA,0,0,0
0.0484,cursorjump,315,0,0.5,10,,0,,0,1,0.5,FALSE,practice,1,0,0.007556,1,0,14.6457,4,0,0,0,0,1,227368,4,SV_73ADPjbMtd0KUBg,304,2021-10-21_16h13.08.584,implicit_time,2021.1.4,Linux x86_64,59.95563283,0,0,NA,NA,NA,NA,0,0,0
0.0702,cursorjump,315,0,0.5,10,,0,,0,1,0.5,FALSE,practice,1,0,0.007556,1,0,14.6457,4,0,0,0,0,1,227368,4,SV_73ADPjbMtd0KUBg,304,2021-10-21_16h13.08.584,implicit_time,2021.1.4,Linux x86_64,59.95563283,0,0,NA,NA,NA,NA,0,0,0
0.0819,cursorjump,315,0,0.5,10,,0,,0,1,0.5,FALSE,practice,1,0,0.007556,1,0,14.6457,4,0,0,0,0,1,227368,4,SV_73ADPjbMtd0KUBg,304,2021-10-21_16h13.08.584,implicit_time,2021.1.4,Linux x86_64,59.95563283,0,0,NA,NA,NA,NA,0,0,0
0.0985,cursorjump,315,0,0.5,10,,0,,0,1,0.5,FALSE,practice,1,0,0.007556,1,0,14.6457,4,0,0,0,0,1,227368,4,SV_73ADPjbMtd0KUBg,304,2021-10-21_16h13.08.584,implicit_time,2021.1.4,Linux x86_64,59.95563283,0,0,NA,NA,NA,NA,0,0,0
0.1148,cursorjump,315,0,0.5,10,,0,,0,1,0.5,FALSE,practice,1,0,0.007556,1,0,14.6457,4,0,0,0,0,1,227368,4,SV_73ADPjbMtd0KUBg,304,2021-10-21_16h13.08.584,implicit_time,2021.1.4,Linux x86_64,59.95563283,0,0,NA,NA,NA,NA,0,0,0
0.131,cursorjump,315,0,0.5,10,,0,,0,1,0.5,FALSE,practice,1,0,0.007556,1,0,14.6457,4,0,0,0,0,1,227368,4,SV_73ADPjbMtd0KUBg,304,2021-10-21_16h13.08.584,implicit_time,2021.1.4,Linux x86_64,59.95563283,0,0,NA,NA,NA,NA,0,0,0
0.1484,cursorjump,315,0,0.5,10,,0,,0,1,0.5,FALSE,practice,1,0,0.007556,1,0,14.6457,4,0,0,0,0,1,227368,4,SV_73ADPjbMtd0KUBg,304,2021-10-21_16h13.08.584,implicit_time,2021.1.4,Linux x86_64,59.95563283,0,0,NA,NA,NA,NA,0,0,0
0.1653,cursorjump,315,0,0.5,10,,0,,0,1,0.5,FALSE,practice,1,0,0.007556,1,0,14.6457,4,0,0,0,0,1,227368,4,SV_73ADPjbMtd0KUBg,304,2021-10-21_16h13.08.584,implicit_time,2021.1.4,Linux x86_64,59.95563283,0,0,NA,NA,NA,NA,0,0,0
0.1814,cursorjump,315,0,0.5,10,,0,,0,1,0.5,FALSE,practice,1,0,0.007556,1,0,14.6457,4,0,0,0,0,1,227368,4,SV_73ADPjbMtd0KUBg,304,2021-10-21_16h13.08.584,implicit_time,2021.1.4,Linux x86_64,59.95563283,0,0,NA,NA,NA,NA,0,0,0
0.1984,cursorjump,315,0,0.5,10,,0,,0,1,0.5,FALSE,practice,1,0,0.007556,1,0,14.6457,4,0,0,0,0,1,227368,4,SV_73ADPjbMtd0KUBg,304,2021-10-21_16h13.08.584,implicit_time,2021.1.4,Linux x86_64,59.95563283,0,0,NA,NA,NA,NA,0,0,0
0.2154,cursorjump,315,0,0.5,10,,0,,0,1,0.5,FALSE,practice,1,0,0.007556,1,0,14.6457,4,0,0,0,0,1,227368,4,SV_73ADPjbMtd0KUBg,304,2021-10-21_16h13.08.584,implicit_time,2021.1.4,Linux x86_64,59.95563283,0,0,NA,NA,NA,NA,0,0,0
0.2321,cursorjump,315,0,0.5,10,,0,,0,1,0.5,FALSE,practice,1,0,0.007556,1,0,14.6457,4,0,0,0,0,1,227368,4,SV_73ADPjbMtd0KUBg,304,2021-10-21_16h13.08.584,implicit_time,2021.1.4,Linux x86_64,59.95563283,0,0,NA,NA,NA,NA,0,0,0
0.2488,cursorjump,315,0,0.5,10,,0,,0,1,0.5,FALSE,practice,1,0,0.007556,1,0,14.6457,4,0,0,0,0,1,227368,4,SV_73ADPjbMtd0KUBg,304,2021-10-21_16h13.08.584,implicit_time,2021.1.4,Linux x86_64,59.95563283,0,0,NA,NA,NA,NA,0,0,0
0.2658,cursorjump,315,0,0.5,10,,0,,0,1,0.5,FALSE,practice,1,-0.004167,0.001333,1,0,14.6457,4,0,0,0,0,1,227368,4,SV_73ADPjbMtd0KUBg,304,2021-10-21_16h13.08.584,implicit_time,2021.1.4,Linux x86_64,59.95563283,0,0,NA,NA,NA,NA,0,0,0
0.2818,cursorjump,315,0,0.5,10,,0,,0,1,0.5,FALSE,practice,1,-0.0125,-0.001778,1,0,14.6457,4,0,0,0,0,1,227368,4,SV_73ADPjbMtd0KUBg,304,2021-10-21_16h13.08.584,implicit_time,2021.1.4,Linux x86_64,59.95563283,0,0,NA,NA,NA,NA,0,0,0
0.2983,cursorjump,315,0,0.5,10,,0,,0,1,0.5,FALSE,practice,1,-0.035417,0.004444,1,0,14.6457,4,0,0,0,0,1,227368,4,SV_73ADPjbMtd0KUBg,304,2021-10-21_16h13.08.584,implicit_time,2021.1.4,Linux x86_64,59.95563283,0,0,NA,NA,NA,NA,0,0,0
0.3149,cursorjump,315,0,0.5,10,,0,,0,1,0.5,FALSE,practice,1,-0.058333,0.013778,1,0,14.6457,4,0,0,0,0,1,227368,4,SV_73ADPjbMtd0KUBg,304,2021-10-21_16h13.08.584,implicit_time,2021.1.4,Linux x86_64,59.95563283,0,0,NA,NA,NA,NA,0,0,0
0.3369,cursorjump,315,0,0.5,10,,0,,0,1,0.5,FALSE,practice,1,-0.058333,0.013778,1,0,14.6457,4,0,0,0,0,1,227368,4,SV_73ADPjbMtd0KUBg,304,2021-10-21_16h13.08.584,implicit_time,2021.1.4,Linux x86_64,59.95563283,0,0,NA,NA,NA,NA,0,0,0
0.348,cursorjump,315,0,0.5,10,,0,,0,1,0.5,FALSE,practice,1,-0.058333,0.013778,1,0,14.6457,4,0,0,0,0,1,227368,4,SV_73ADPjbMtd0KUBg,304,2021-10-21_16h13.08.584,implicit_time,2021.1.4,Linux x86_64,59.95563283,0,0,NA,NA,NA,NA,0,0,0
0.3647,cursorjump,315,0,0.5,10,,0,,0,1,0.5,FALSE,practice,1,-0.058333,0.013778,1,0,14.6457,4,0,0,0,0,1,227368,4,SV_73ADPjbMtd0KUBg,304,2021-10-21_16h13.08.584,implicit_time,2021.1.4,Linux x86_64,59.95563283,0,0,NA,NA,NA,NA,0,0,0
0.3815,cursorjump,315,0,0.5,10,,0,,0,1,0.5,FALSE,practice,1,-0.058333,0.013778,1,0,14.6457,4,0,0,0,0,1,227368,4,SV_73ADPjbMtd0KUBg,304,2021-10-21_16h13.08.584,implicit_time,2021.1.4,Linux x86_64,59.95563283,0,0,NA,NA,NA,NA,0,0,0
0.3983,cursorjump,315,0,0.5,10,,0,,0,1,0.5,FALSE,practice,1,-0.058333,0.013778,1,0,14.6457,4,0,0,0,0,1,227368,4,SV_73ADPjbMtd0KUBg,304,2021-10-21_16h13.08.584,implicit_time,2021.1.4,Linux x86_64,59.95563283,0,0,NA,NA,NA,NA,0,0,0
0.4163,cursorjump,315,0,0.5,10,,0,,0,1,0.5,FALSE,practice,1,-0.058333,0.013778,1,0,14.6457,4,0,0,0,0,1,227368,4,SV_73ADPjbMtd0KUBg,304,2021-10-21_16h13.08.584,implicit_time,2021.1.4,Linux x86_64,59.95563283,0,0,NA,NA,NA,NA,0,0,0
0.4312,cursorjump,315,0,0.5,10,,0,,0,1,0.5,FALSE,practice,1,-0.058333,0.013778,1,0,14.6457,4,0,0,0,0,1,227368,4,SV_73ADPjbMtd0KUBg,304,2021-10-21_16h13.08.584,implicit_time,2021.1.4,Linux x86_64,59.95563283,0,0,NA,NA,NA,NA,0,0,0
0.4482,cursorjump,315,0,0.5,10,,0,,0,1,0.5,FALSE,practice,1,-0.058333,0.013778,1,0,14.6457,4,0,0,0,0,1,227368,4,SV_73ADPjbMtd0KUBg,304,2021-10-21_16h13.08.584,implicit_time,2021.1.4,Linux x86_64,59.95563283,0,0,NA,NA,NA,NA,0,0,0
0.465,cursorjump,315,0,0.5,10,,0,,0,1,0.5,FALSE,practice,1,-0.058333,0.013778,1,0,14.6457,4,0,0,0,0,1,227368,4,SV_73ADPjbMtd0KUBg,304,2021-10-21_16h13.08.584,implicit_time,2021.1.4,Linux x86_64,59.95563283,0,0,NA,NA,NA,NA,0,0,0
0.4817,cursorjump,315,0,0.5,10,,0,,0,1,0.5,FALSE,practice,1,-0.058333,0.013778,1,0,14.6457,4,0,0,0,0,1,227368,4,SV_73ADPjbMtd0KUBg,304,2021-10-21_16h13.08.584,implicit_time,2021.1.4,Linux x86_64,59.95563283,0,0,NA,NA,NA,NA,0,0,0
0.4984,cursorjump,315,0,0.5,10,,0,,0,1,0.5,FALSE,practice,1,-0.058333,0.013778,1,0,14.6457,4,0,0,0,0,1,227368,4,SV_73ADPjbMtd0KUBg,304,2021-10-21_16h13.08.584,implicit_time,2021.1.4,Linux x86_64,59.95563283,0,0,NA,NA,NA,NA,0,0,0
0.5146,cursorjump,315,0,0.5,10,,0,,0,1,0.5,FALSE,practice,1,-0.058333,0.013778,1,0,14.6457,4,0,0,0,0,1,227368,4,SV_73ADPjbMtd0KUBg,304,2021-10-21_16h13.08.584,implicit_time,2021.1.4,Linux x86_64,59.95563283,0,0,NA,NA,NA,NA,0,0,0
0.5317,cursorjump,315,0,0.5,10,,0,,0,1,0.5,FALSE,practice,1,-0.058333,0.013778,1,0,14.6457,4,0,0,0,0,1,227368,4,SV_73ADPjbMtd0KUBg,304,2021-10-21_16h13.08.584,implicit_time,2021.1.4,Linux x86_64,59.95563283,0,0,NA,NA,NA,NA,0,0,0
0.5487,cursorjump,315,0,0.5,10,,0,,0,1,0.5,FALSE,practice,1,-0.058333,0.013778,1,0,14.6457,4,0,0,0,0,1,227368,4,SV_73ADPjbMtd0KUBg,304,2021-10-21_16h13.08.584,implicit_time,2021.1.4,Linux x86_64,59.95563283,0,0,NA,NA,NA,NA,0,0,0
0.5652,cursorjump,315,0,0.5,10,,0,,0,1,0.5,FALSE,practice,1,-0.058333,0.013778,1,0,14.6457,4,0,0,0,0,1,227368,4,SV_73ADPjbMtd0KUBg,304,2021-10-21_16h13.08.584,implicit_time,2021.1.4,Linux x86_64,59.95563283,0,0,NA,NA,NA,NA,0,0,0
0.5812,cursorjump,315,0,0.5,10,,0,,0,1,0.5,FALSE,practice,1,-0.058333,0.013778,1,0,14.6457,4,0,0,0,0,1,227368,4,SV_73ADPjbMtd0KUBg,304,2021-10-21_16h13.08.584,implicit_time,2021.1.4,Linux x86_64,59.95563283,0,0,NA,NA,NA,NA,0,0,0
0.5984,cursorjump,315,0,0.5,10,,0,,0,1,0.5,FALSE,practice,1,-0.058333,0.013778,1,0,14.6457,4,0,0,0,0,1,227368,4,SV_73ADPjbMtd0KUBg,304,2021-10-21_16h13.08.584,implicit_time,2021.1.4,Linux x86_64,59.95563283,0,0,NA,NA,NA,NA,0,0,1
0.6151,cursorjump,315,0,0.5,10,,0,,0,1,0.5,FALSE,practice,1,-0.058333,0.013778,1,0,14.6457,4,0,0,0,0,1,227368,4,SV_73ADPjbMtd0KUBg,304,2021-10-21_16h13.08.584,implicit_time,2021.1.4,Linux x86_64,59.95563283,0,0,NA,NA,NA,NA,0,0,1
0.6314,cursorjump,315,0,0.5,10,,0,,0,1,0.5,FALSE,practice,1,-0.058333,0.013778,1,0,14.6457,4,0,0,0,0,1,227368,4,SV_73ADPjbMtd0KUBg,304,2021-10-21_16h13.08.584,implicit_time,2021.1.4,Linux x86_64,59.95563283,0,0,NA,NA,NA,NA,0,0,1
0.6484,cursorjump,315,0,0.5,10,,0,,0,1,0.5,FALSE,practice,1,-0.058333,0.013778,1,0,14.6457,4,0,0,0,0,1,227368,4,SV_73ADPjbMtd0KUBg,304,2021-10-21_16h13.08.584,implicit_time,2021.1.4,Linux x86_64,59.95563283,0,0,NA,NA,NA,NA,0,0,1
0.6652,cursorjump,315,0,0.5,10,,0,,0,1,0.5,FALSE,practice,1,-0.058333,0.013778,1,0,14.6457,4,0,0,0,0,1,227368,4,SV_73ADPjbMtd0KUBg,304,2021-10-21_16h13.08.584,implicit_time,2021.1.4,Linux x86_64,59.95563283,0,0,NA,NA,NA,NA,0,0,1
0.6819,cursorjump,315,0,0.5,10,,0,,0,1,0.5,FALSE,practice,1,-0.058333,0.013778,1,0,14.6457,4,0,0,0,0,1,227368,4,SV_73ADPjbMtd0KUBg,304,2021-10-21_16h13.08.584,implicit_time,2021.1.4,Linux x86_64,59.95563283,0,0,NA,NA,NA,NA,0,0,1
0.6981,cursorjump,315,0,0.5,10,,0,,0,1,0.5,FALSE,practice,1,-0.058333,0.013778,1,0,14.6457,4,0,0,0,0,1,227368,4,SV_73ADPjbMtd0KUBg,304,2021-10-21_16h13.08.584,implicit_time,2021.1.4,Linux x86_64,59.95563283,0,0,NA,NA,NA,NA,0,0,1
0.715,cursorjump,315,0,0.5,10,,0,,0,1,0.5,FALSE,practice,1,-0.058333,0.013778,1,0,14.6457,4,0,0,0,0,1,227368,4,SV_73ADPjbMtd0KUBg,304,2021-10-21_16h13.08.584,implicit_time,2021.1.4,Linux x86_64,59.95563283,0,0,NA,NA,NA,NA,0,0,1
0.7319,cursorjump,315,0,0.5,10,,0,,0,1,0.5,FALSE,practice,1,-0.058333,0.013778,1,0,14.6457,4,0,0,0,0,1,227368,4,SV_73ADPjbMtd0KUBg,304,2021-10-21_16h13.08.584,implicit_time,2021.1.4,Linux x86_64,59.95563283,0,0,NA,NA,NA,NA,0,0,1
0.7489,cursorjump,315,0,0.5,10,,0,,0,1,0.5,FALSE,practice,1,-0.154167,-0.521333,1,0,14.6457,4,0,0,0,0,1,227368,4,SV_73ADPjbMtd0KUBg,304,2021-10-21_16h13.08.584,implicit_time,2021.1.4,Linux x86_64,59.95563283,0,0,NA,NA,NA,NA,0,1,1
0.7658,cursorjump,315,0,0.5,10,,0,,0,1,0.5,FALSE,practice,1,-0.145833,-0.521333,1,0,14.6457,4,0,0,0,0,1,227368,4,SV_73ADPjbMtd0KUBg,304,2021-10-21_16h13.08.584,implicit_time,2021.1.4,Linux x86_64,59.95563283,0,0,NA,NA,NA,NA,0,0,1
0.7821,cursorjump,315,0,0.5,10,,0,,0,1,0.5,FALSE,practice,1,-0.147917,-0.518222,1,0,14.6457,4,0,0,0,0,1,227368,4,SV_73ADPjbMtd0KUBg,304,2021-10-21_16h13.08.584,implicit_time,2021.1.4,Linux x86_64,59.95563283,0,0,NA,NA,NA,NA,0,0,1
0.7988,cursorjump,315,0,0.5,10,,0,,0,1,0.5,FALSE,practice,1,-0.15,-0.515111,1,0,14.6457,4,0,0,0,0,1,227368,4,SV_73ADPjbMtd0KUBg,304,2021-10-21_16h13.08.584,implicit_time,2021.1.4,Linux x86_64,59.95563283,0,0,NA,NA,NA,NA,0,0,1
0.8156,cursorjump,315,0,0.5,10,,0,,0,1,0.5,FALSE,practice,1,-0.139583,-0.515111,1,0,14.6457,4,0,0,0,0,1,227368,4,SV_73ADPjbMtd0KUBg,304,2021-10-21_16h13.08.584,implicit_time,2021.1.4,Linux x86_64,59.95563283,0,0,NA,NA,NA,NA,0,0,1
0.8323,cursorjump,315,0,0.5,10,,0,,0,1,0.5,FALSE,practice,1,-0.129167,-0.515111,1,0,14.6457,4,0,0,0,0,1,227368,4,SV_73ADPjbMtd0KUBg,304,2021-10-21_16h13.08.584,implicit_time,2021.1.4,Linux x86_64,59.95563283,0,0,NA,NA,NA,NA,0,0,1
0.8488,cursorjump,315,0,0.5,10,,0,,0,1,0.5,FALSE,practice,1,-0.102083,-0.518222,1,0,14.6457,4,0,0,0,0,1,227368,4,SV_73ADPjbMtd0KUBg,304,2021-10-21_16h13.08.584,implicit_time,2021.1.4,Linux x86_64,59.95563283,0,0,NA,NA,NA,NA,0,0,1
0.8657,cursorjump,315,0,0.5,10,,0,,0,1,0.5,FALSE,practice,1,-0.070833,-0.518222,1,0,14.6457,4,0,0,0,0,1,227368,4,SV_73ADPjbMtd0KUBg,304,2021-10-21_16h13.08.584,implicit_time,2021.1.4,Linux x86_64,59.95563283,0,0,NA,NA,NA,NA,0,0,1
0.8822,cursorjump,315,0,0.5,10,,0,,0,1,0.5,FALSE,practice,1,-0.05625,-0.518222,1,0,14.6457,4,0,0,0,0,1,227368,4,SV_73ADPjbMtd0KUBg,304,2021-10-21_16h13.08.584,implicit_time,2021.1.4,Linux x86_64,59.95563283,0,0,NA,NA,NA,NA,0,0,1
0.8987,cursorjump,315,0,0.5,10,,0,,0,1,0.5,FALSE,practice,1,-0.03125,-0.524444,1,0,14.6457,4,0,0,0,0,1,227368,4,SV_73ADPjbMtd0KUBg,304,2021-10-21_16h13.08.584,implicit_time,2021.1.4,Linux x86_64,59.95563283,0,0,NA,NA,NA,NA,0,0,1
0.9155,cursorjump,315,0,0.5,10,,0,,0,1,0.5,FALSE,practice,1,-0.008333,-0.536889,1,0,14.6457,4,0,0,0,0,1,227368,4,SV_73ADPjbMtd0KUBg,304,2021-10-21_16h13.08.584,implicit_time,2021.1.4,Linux x86_64,59.95563283,0,0,NA,NA,NA,NA,0,0,1
0.9325,cursorjump,315,0,0.5,10,,0,,0,1,0.5,FALSE,practice,1,0.004167,-0.543111,1,0,14.6457,4,0,0,0,0,1,227368,4,SV_73ADPjbMtd0KUBg,304,2021-10-21_16h13.08.584,implicit_time,2021.1.4,Linux x86_64,59.95563283,0,0,NA,NA,NA,NA,0,0,1
0.9489,cursorjump,315,0,0.5,10,,0,,0,1,0.5,FALSE,practice,1,0.035417,-0.561778,1,0,14.6457,4,0,0,0,0,1,227368,4,SV_73ADPjbMtd0KUBg,304,2021-10-21_16h13.08.584,implicit_time,2021.1.4,Linux x86_64,59.95563283,0,0,NA,NA,NA,NA,0,0,1
0.9658,cursorjump,315,0,0.5,10,,0,,0,1,0.5,FALSE,practice,1,0.06875,-0.580444,1,0,14.6457,4,0,0,0,0,1,227368,4,SV_73ADPjbMtd0KUBg,304,2021-10-21_16h13.08.584,implicit_time,2021.1.4,Linux x86_64,59.95563283,0,0,NA,NA,NA,NA,0,0,1
0.9821,cursorjump,315,0,0.5,10,,0,,0,1,0.5,FALSE,practice,1,0.0875,-0.589778,1,0,14.6457,4,0,0,0,0,1,227368,4,SV_73ADPjbMtd0KUBg,304,2021-10-21_16h13.08.584,implicit_time,2021.1.4,Linux x86_64,59.95563283,0,0,NA,NA,NA,NA,0,0,1
0.9989,cursorjump,315,0,0.5,10,,0,,0,1,0.5,FALSE,practice,1,0.122917,-0.605333,1,0,14.6457,4,0,0,0,0,1,227368,4,SV_73ADPjbMtd0KUBg,304,2021-10-21_16h13.08.584,implicit_time,2021.1.4,Linux x86_64,59.95563283,0,0,NA,NA,NA,NA,0,0,1
1.0156,cursorjump,315,0,0.5,10,,0,,0,1,0.5,FALSE,practice,1,0.160417,-0.617778,1,0,14.6457,4,0,0,0,0,1,227368,4,SV_73ADPjbMtd0KUBg,304,2021-10-21_16h13.08.584,implicit_time,2021.1.4,Linux x86_64,59.95563283,0,0,NA,NA,NA,NA,0,0,1
1.0323,cursorjump,315,0,0.5,10,,0,,0,1,0.5,FALSE,practice,1,0.179167,-0.624,1,0,14.6457,4,0,0,0,0,1,227368,4,SV_73ADPjbMtd0KUBg,304,2021-10-21_16h13.08.584,implicit_time,2021.1.4,Linux x86_64,59.95563283,0,0,NA,NA,NA,NA,0,0,1
1.049,cursorjump,315,0,0.5,10,,0,,0,1,0.5,FALSE,practice,1,0.216667,-0.630222,1,0,14.6457,4,0,0,0,0,1,227368,4,SV_73ADPjbMtd0KUBg,304,2021-10-21_16h13.08.584,implicit_time,2021.1.4,Linux x86_64,59.95563283,0,0,NA,NA,NA,NA,0,0,1
1.0657,cursorjump,315,0,0.5,10,,0,,0,1,0.5,FALSE,practice,1,0.252083,-0.636444,1,0,14.6457,4,0,0,0,0,1,227368,4,SV_73ADPjbMtd0KUBg,304,2021-10-21_16h13.08.584,implicit_time,2021.1.4,Linux x86_64,59.95563283,0,0,NA,NA,NA,NA,0,0,1
1.0824,cursorjump,315,0,0.5,10,,0,,0,1,0.5,FALSE,practice,1,0.26875,-0.639556,1,0,14.6457,4,0,0,0,0,1,227368,4,SV_73ADPjbMtd0KUBg,304,2021-10-21_16h13.08.584,implicit_time,2021.1.4,Linux x86_64,59.95563283,0,0,NA,NA,NA,NA,0,0,1
1.099,cursorjump,315,0,0.5,10,,0,,0,1,0.5,FALSE,practice,1,0.3,-0.639556,1,0,14.6457,4,0,0,0,0,1,227368,4,SV_73ADPjbMtd0KUBg,304,2021-10-21_16h13.08.584,implicit_time,2021.1.4,Linux x86_64,59.95563283,0,0,NA,NA,NA,NA,0,0,1
1.1158,cursorjump,315,0,0.5,10,,0,,0,1,0.5,FALSE,practice,1,0.329167,-0.642667,1,0,14.6457,4,0,0,0,0,1,227368,4,SV_73ADPjbMtd0KUBg,304,2021-10-21_16h13.08.584,implicit_time,2021.1.4,Linux x86_64,59.95563283,0,0,NA,NA,NA,NA,0,0,1
1.1324,cursorjump,315,0,0.5,10,,0,,0,1,0.5,FALSE,practice,1,0.341667,-0.642667,1,0,14.6457,4,0,0,0,0,1,227368,4,SV_73ADPjbMtd0KUBg,304,2021-10-21_16h13.08.584,implicit_time,2021.1.4,Linux x86_64,59.95563283,0,0,NA,NA,NA,NA,0,0,1
1.1492,cursorjump,315,0,0.5,10,,0,,0,1,0.5,FALSE,practice,1,0.3625,-0.642667,1,0,14.6457,4,0,0,0,0,1,227368,4,SV_73ADPjbMtd0KUBg,304,2021-10-21_16h13.08.584,implicit_time,2021.1.4,Linux x86_64,59.95563283,0,0,NA,NA,NA,NA,0,0,1
1.1658,cursorjump,315,0,0.5,10,,0,,0,1,0.5,FALSE,practice,1,0.379167,-0.642667,1,0,14.6457,4,0,0,0,0,1,227368,4,SV_73ADPjbMtd0KUBg,304,2021-10-21_16h13.08.584,implicit_time,2021.1.4,Linux x86_64,59.95563283,0,0,NA,NA,NA,NA,0,0,1
1.1827,cursorjump,315,0,0.5,10,,0,,0,1,0.5,FALSE,practice,1,0.385417,-0.642667,1,0,14.6457,4,0,0,0,0,1,227368,4,SV_73ADPjbMtd0KUBg,304,2021-10-21_16h13.08.584,implicit_time,2021.1.4,Linux x86_64,59.95563283,0,0,NA,NA,NA,NA,0,0,1
1.1991,cursorjump,315,0,0.5,10,,0,,0,1,0.5,FALSE,practice,1,0.397917,-0.642667,1,0,14.6457,4,0,0,0,0,1,227368,4,SV_73ADPjbMtd0KUBg,304,2021-10-21_16h13.08.584,implicit_time,2021.1.4,Linux x86_64,59.95563283,0,0,NA,NA,NA,NA,0,0,1
1.2159,cursorjump,315,0,0.5,10,,0,,0,1,0.5,FALSE,practice,1,0.410417,-0.642667,1,0,14.6457,4,0,0,0,0,1,227368,4,SV_73ADPjbMtd0KUBg,304,2021-10-21_16h13.08.584,implicit_time,2021.1.4,Linux x86_64,59.95563283,0,0,NA,NA,NA,NA,0,0,1
1.2327,cursorjump,315,0,0.5,10,,0,,0,1,0.5,FALSE,practice,1,0.41875,-0.642667,1,0,14.6457,4,0,0,0,0,1,227368,4,SV_73ADPjbMtd0KUBg,304,2021-10-21_16h13.08.584,implicit_time,2021.1.4,Linux x86_64,59.95563283,0,0,NA,NA,NA,NA,0,0,1
1.2492,cursorjump,315,0,0.5,10,,0,,0,1,0.5,FALSE,practice,1,0.4375,-0.639556,1,0,14.6457,4,0,0,0,0,1,227368,4,SV_73ADPjbMtd0KUBg,304,2021-10-21_16h13.08.584,implicit_time,2021.1.4,Linux x86_64,59.95563283,0,0,NA,NA,NA,NA,0,0,1
1.266,cursorjump,315,0,0.5,10,,0,,0,1,0.5,FALSE,practice,1,0.458333,-0.636444,1,0,14.6457,4,0,0,0,0,1,227368,4,SV_73ADPjbMtd0KUBg,304,2021-10-21_16h13.08.584,implicit_time,2021.1.4,Linux x86_64,59.95563283,0,0,NA,NA,NA,NA,0,0,1
1.2826,cursorjump,315,0,0.5,10,,0,,0,1,0.5,FALSE,practice,1,0.46875,-0.636444,1,0,14.6457,4,0,0,0,0,1,227368,4,SV_73ADPjbMtd0KUBg,304,2021-10-21_16h13.08.584,implicit_time,2021.1.4,Linux x86_64,59.95563283,0,0,NA,NA,NA,NA,0,0,1
1.2994,cursorjump,315,0,0.5,10,,0,,0,1,0.5,FALSE,practice,1,0.495833,-0.633333,1,0,14.6457,4,0,0,0,0,1,227368,4,SV_73ADPjbMtd0KUBg,304,2021-10-21_16h13.08.584,implicit_time,2021.1.4,Linux x86_64,59.95563283,0,0,NA,NA,NA,NA,0,0,1
1.3161,cursorjump,315,0,0.5,10,,0,,0,1,0.5,FALSE,practice,1,0.51875,-0.633333,1,0,14.6457,4,0,0,0,0,1,227368,4,SV_73ADPjbMtd0KUBg,304,2021-10-21_16h13.08.584,implicit_time,2021.1.4,Linux x86_64,59.95563283,0,0,NA,NA,NA,NA,0,0,1
1.3331,cursorjump,315,0,0.5,10,,0,,0,1,0.5,FALSE,practice,1,0.529167,-0.630222,1,0,14.6457,4,0,0,0,0,1,227368,4,SV_73ADPjbMtd0KUBg,304,2021-10-21_16h13.08.584,implicit_time,2021.1.4,Linux x86_64,59.95563283,0,0,NA,NA,NA,NA,0,0,1
1.3496,cursorjump,315,0,0.5,10,,0,,0,1,0.5,FALSE,practice,1,0.533333,-0.630222,1,0,14.6457,4,0,0,0,0,1,227368,4,SV_73ADPjbMtd0KUBg,304,2021-10-21_16h13.08.584,implicit_time,2021.1.4,Linux x86_64,59.95563283,0,0,NA,NA,NA,NA,0,0,1
1.3658,cursorjump,315,0,0.5,10,,0,,0,1,0.5,FALSE,practice,1,0.5375,-0.630222,1,0,14.6457,4,0,0,0,0,1,227368,4,SV_73ADPjbMtd0KUBg,304,2021-10-21_16h13.08.584,implicit_time,2021.1.4,Linux x86_64,59.95563283,0,0,NA,NA,NA,NA,0,0,1
1.3824,cursorjump,315,0,0.5,10,,0,,0,1,0.5,FALSE,practice,1,0.541667,-0.630222,1,0,14.6457,4,0,0,0,0,1,227368,4,SV_73ADPjbMtd0KUBg,304,2021-10-21_16h13.08.584,implicit_time,2021.1.4,Linux x86_64,59.95563283,0,0,NA,NA,NA,NA,0,0,1
1.3995,cursorjump,315,0,0.5,10,,0,,0,1,0.5,FALSE,practice,1,0.547917,-0.630222,1,0,14.6457,4,0,0,0,0,1,227368,4,SV_73ADPjbMtd0KUBg,304,2021-10-21_16h13.08.584,implicit_time,2021.1.4,Linux x86_64,59.95563283,0,0,NA,NA,NA,NA,0,0,1
1.4158,cursorjump,315,0,0.5,10,,0,,0,1,0.5,FALSE,practice,1,0.560417,-0.630222,1,0,14.6457,4,0,0,0,0,1,227368,4,SV_73ADPjbMtd0KUBg,304,2021-10-21_16h13.08.584,implicit_time,2021.1.4,Linux x86_64,59.95563283,0,0,NA,NA,NA,NA,0,0,1
1.4332,cursorjump,315,0,0.5,10,,0,,0,1,0.5,FALSE,practice,1,0.577083,-0.630222,1,0,14.6457,4,0,0,0,0,1,227368,4,SV_73ADPjbMtd0KUBg,304,2021-10-21_16h13.08.584,implicit_time,2021.1.4,Linux x86_64,59.95563283,0,0,NA,NA,NA,NA,0,0,1
1.4498,cursorjump,315,0,0.5,10,,0,,0,1,0.5,FALSE,practice,1,0.5875,-0.630222,1,0,14.6457,4,0,0,0,0,1,227368,4,SV_73ADPjbMtd0KUBg,304,2021-10-21_16h13.08.584,implicit_time,2021.1.4,Linux x86_64,59.95563283,0,0,NA,NA,NA,NA,0,0,1
1.4662,cursorjump,315,0,0.5,10,,0,,0,1,0.5,FALSE,practice,1,0.60625,-0.630222,1,0,14.6457,4,0,0,0,0,1,227368,4,SV_73ADPjbMtd0KUBg,304,2021-10-21_16h13.08.584,implicit_time,2021.1.4,Linux x86_64,59.95563283,0,0,NA,NA,NA,NA,0,0,1
1.4824,cursorjump,315,0,0.5,10,,0,,0,1,0.5,FALSE,practice,1,0.616667,-0.630222,1,0,14.6457,4,0,0,0,0,1,227368,4,SV_73ADPjbMtd0KUBg,304,2021-10-21_16h13.08.584,implicit_time,2021.1.4,Linux x86_64,59.95563283,0,0,NA,NA,NA,NA,0,0,1
1.4993,cursorjump,315,0,0.5,10,,0,,0,1,0.5,FALSE,practice,1,0.639583,-0.633333,1,0,14.6457,4,0,0,0,0,1,227368,4,SV_73ADPjbMtd0KUBg,304,2021-10-21_16h13.08.584,implicit_time,2021.1.4,Linux x86_64,59.95563283,0,0,NA,NA,NA,NA,0,0,1
1.516,cursorjump,315,0,0.5,10,,0,,0,1,0.5,FALSE,practice,1,0.658333,-0.636444,1,0,14.6457,4,0,0,0,0,1,227368,4,SV_73ADPjbMtd0KUBg,304,2021-10-21_16h13.08.584,implicit_time,2021.1.4,Linux x86_64,59.95563283,0,0,NA,NA,NA,NA,0,0,1
1.5328,cursorjump,315,0,0.5,10,,0,,0,1,0.5,FALSE,practice,1,0.666667,-0.639556,1,0,14.6457,4,0,0,0,0,1,227368,4,SV_73ADPjbMtd0KUBg,304,2021-10-21_16h13.08.584,implicit_time,2021.1.4,Linux x86_64,59.95563283,0,0,NA,NA,NA,NA,0,0,1
1.5494,cursorjump,315,0,0.5,10,,0,,0,1,0.5,FALSE,practice,1,0.68125,-0.642667,1,0,14.6457,4,0,0,0,0,1,227368,4,SV_73ADPjbMtd0KUBg,304,2021-10-21_16h13.08.584,implicit_time,2021.1.4,Linux x86_64,59.95563283,0,0,NA,NA,NA,NA,0,0,1
1.5662,cursorjump,315,0,0.5,10,,0,,0,1,0.5,FALSE,practice,1,0.691667,-0.642667,1,0,14.6457,4,0,0,0,0,1,227368,4,SV_73ADPjbMtd0KUBg,304,2021-10-21_16h13.08.584,implicit_time,2021.1.4,Linux x86_64,59.95563283,0,0,NA,NA,NA,NA,0,0,1
1.5825,cursorjump,315,0,0.5,10,,0,,0,1,0.5,FALSE,practice,1,0.695833,-0.642667,1,0,14.6457,4,0,0,0,0,1,227368,4,SV_73ADPjbMtd0KUBg,304,2021-10-21_16h13.08.584,implicit_time,2021.1.4,Linux x86_64,59.95563283,0,0,NA,NA,NA,NA,0,0,1
1.5993,cursorjump,315,0,0.5,10,,0,,0,1,0.5,FALSE,practice,1,0.7,-0.642667,1,0,14.6457,4,0,0,0,0,1,227368,4,SV_73ADPjbMtd0KUBg,304,2021-10-21_16h13.08.584,implicit_time,2021.1.4,Linux x86_64,59.95563283,0,0,NA,NA,NA,NA,0,0,1
1.616,cursorjump,315,0,0.5,10,,0,,0,1,0.5,FALSE,practice,1,0.702083,-0.642667,1,0,14.6457,4,0,0,0,0,1,227368,4,SV_73ADPjbMtd0KUBg,304,2021-10-21_16h13.08.584,implicit_time,2021.1.4,Linux x86_64,59.95563283,0,0,NA,NA,NA,NA,0,0,1
1.6327,cursorjump,315,0,0.5,10,,0,,0,1,0.5,FALSE,practice,1,0.70625,-0.642667,1,0,14.6457,4,0,0,0,0,1,227368,4,SV_73ADPjbMtd0KUBg,304,2021-10-21_16h13.08.584,implicit_time,2021.1.4,Linux x86_64,59.95563283,0,0,NA,NA,NA,NA,0,0,1
1.6497,cursorjump,315,0,0.5,10,,0,,0,1,0.5,FALSE,practice,1,0.7125,-0.642667,2,0,14.6457,4,0,0,0,0,1,227368,4,SV_73ADPjbMtd0KUBg,304,2021-10-21_16h13.08.584,implicit_time,2021.1.4,Linux x86_64,59.95563283,0,0,NA,NA,NA,NA,1,0,1
1.6706,cursorjump,315,0,0.5,10,,0,,0,1,0.5,FALSE,practice,1,0.716667,-0.645778,2,0,14.6457,4,0,0,0,0,1,227368,4,SV_73ADPjbMtd0KUBg,304,2021-10-21_16h13.08.584,implicit_time,2021.1.4,Linux x86_64,59.95563283,0,0,NA,NA,NA,NA,1,0,1
1.6831,cursorjump,315,0,0.5,10,,0,,0,1,0.5,FALSE,practice,1,0.71875,-0.645778,2,0,14.6457,4,0,0,0,0,1,227368,4,SV_73ADPjbMtd0KUBg,304,2021-10-21_16h13.08.584,implicit_time,2021.1.4,Linux x86_64,59.95563283,0,0,NA,NA,NA,NA,1,0,1
1.6995,cursorjump,315,0,0.5,10,,0,,0,1,0.5,FALSE,practice,1,0.720833,-0.645778,2,0,14.6457,4,0,0,0,0,1,227368,4,SV_73ADPjbMtd0KUBg,304,2021-10-21_16h13.08.584,implicit_time,2021.1.4,Linux x86_64,59.95563283,0,0,NA,NA,NA,NA,1,0,1
1.7163,cursorjump,315,0,0.5,10,,0,,0,1,0.5,FALSE,practice,1,0.722917,-0.645778,2,0,14.6457,4,0,0,0,0,1,227368,4,SV_73ADPjbMtd0KUBg,304,2021-10-21_16h13.08.584,implicit_time,2021.1.4,Linux x86_64,59.95563283,0,0,NA,NA,NA,NA,1,0,1
1.7328,cursorjump,315,0,0.5,10,,0,,0,1,0.5,FALSE,practice,1,0.729167,-0.648889,2,0,14.6457,4,0,0,0,0,1,227368,4,SV_73ADPjbMtd0KUBg,304,2021-10-21_16h13.08.584,implicit_time,2021.1.4,Linux x86_64,59.95563283,0,0,NA,NA,NA,NA,1,0,1
1.7496,cursorjump,315,0,0.5,10,,0,,0,1,0.5,FALSE,practice,1,0.735417,-0.652,2,0,14.6457,4,0,0,0,0,1,227368,4,SV_73ADPjbMtd0KUBg,304,2021-10-21_16h13.08.584,implicit_time,2021.1.4,Linux x86_64,59.95563283,0,0,NA,NA,NA,NA,1,0,1
1.7663,cursorjump,315,0,0.5,10,,0,,0,1,0.5,FALSE,practice,1,0.741667,-0.658222,2,0,14.6457,4,0,0,0,0,1,227368,4,SV_73ADPjbMtd0KUBg,304,2021-10-21_16h13.08.584,implicit_time,2021.1.4,Linux x86_64,59.95563283,0,0,NA,NA,NA,NA,1,0,1
1.7829,cursorjump,315,0,0.5,10,,0,,0,1,0.5,FALSE,practice,1,0.74375,-0.658222,2,0,14.6457,4,0,0,0,0,1,227368,4,SV_73ADPjbMtd0KUBg,304,2021-10-21_16h13.08.584,implicit_time,2021.1.4,Linux x86_64,59.95563283,0,0,NA,NA,NA,NA,1,0,1
1.7997,cursorjump,315,0,0.5,10,,0,,0,1,0.5,FALSE,practice,1,0.745833,-0.658222,2,0,14.6457,4,0,0,0,0,1,227368,4,SV_73ADPjbMtd0KUBg,304,2021-10-21_16h13.08.584,implicit_time,2021.1.4,Linux x86_64,59.95563283,0,0,NA,NA,NA,NA,1,0,1
1.8158,cursorjump,315,0,0.5,10,,0,,0,1,0.5,FALSE,practice,1,0.745833,-0.658222,2,0,14.6457,4,0,0,0,0,1,227368,4,SV_73ADPjbMtd0KUBg,304,2021-10-21_16h13.08.584,implicit_time,2021.1.4,Linux x86_64,59.95563283,0,0,NA,NA,NA,NA,1,0,0
1.833,cursorjump,315,0,0.5,10,,0,,0,1,0.5,FALSE,practice,1,0.74375,-0.661333,2,0,14.6457,4,0,0,0,0,1,227368,4,SV_73ADPjbMtd0KUBg,304,2021-10-21_16h13.08.584,implicit_time,2021.1.4,Linux x86_64,59.95563283,0,0,NA,NA,NA,NA,1,0,0
1.8499,cursorjump,315,0,0.5,10,,0,,0,1,0.5,FALSE,practice,1,0.74375,-0.664444,2,0,14.6457,4,0,0,0,0,1,227368,4,SV_73ADPjbMtd0KUBg,304,2021-10-21_16h13.08.584,implicit_time,2021.1.4,Linux x86_64,59.95563283,0,0,NA,NA,NA,NA,1,0,0
1.8678,cursorjump,315,0,0.5,10,,0,,0,1,0.5,FALSE,practice,1,0.74375,-0.667556,2,0,14.6457,4,0,0,0,0,1,227368,4,SV_73ADPjbMtd0KUBg,304,2021-10-21_16h13.08.584,implicit_time,2021.1.4,Linux x86_64,59.95563283,0,0,NA,NA,NA,NA,1,0,0
1.8832,cursorjump,315,0,0.5,10,,0,,0,1,0.5,FALSE,practice,1,0.74375,-0.667556,2,0,14.6457,4,0,0,0,0,1,227368,4,SV_73ADPjbMtd0KUBg,304,2021-10-21_16h13.08.584,implicit_time,2021.1.4,Linux x86_64,59.95563283,0,0,NA,NA,NA,NA,1,0,0
1.8997,cursorjump,315,0,0.5,10,,0,,0,1,0.5,FALSE,practice,1,0.74375,-0.667556,2,0,14.6457,4,0,0,0,0,1,227368,4,SV_73ADPjbMtd0KUBg,304,2021-10-21_16h13.08.584,implicit_time,2021.1.4,Linux x86_64,59.95563283,0,0,NA,NA,NA,NA,1,0,0
1.9165,cursorjump,315,0,0.5,10,,0,,0,1,0.5,FALSE,practice,1,0.74375,-0.667556,2,0,14.6457,4,0,0,0,0,1,227368,4,SV_73ADPjbMtd0KUBg,304,2021-10-21_16h13.08.584,implicit_time,2021.1.4,Linux x86_64,59.95563283,0,0,NA,NA,NA,NA,1,0,0
1.934,cursorjump,315,0,0.5,10,,0,,0,1,0.5,FALSE,practice,1,0.74375,-0.667556,2,0,14.6457,4,0,0,0,0,1,227368,4,SV_73ADPjbMtd0KUBg,304,2021-10-21_16h13.08.584,implicit_time,2021.1.4,Linux x86_64,59.95563283,0,0,NA,NA,NA,NA,1,0,0
1.9497,cursorjump,315,0,0.5,10,,0,,0,1,0.5,FALSE,practice,1,0.74375,-0.667556,2,0,14.6457,4,0,0,0,0,1,227368,4,SV_73ADPjbMtd0KUBg,304,2021-10-21_16h13.08.584,implicit_time,2021.1.4,Linux x86_64,59.95563283,0,0,NA,NA,NA,NA,1,0,0
1.9685,cursorjump,315,0,0.5,10,,0,,0,1,0.5,FALSE,practice,1,0.74375,-0.667556,2,0,14.6457,4,0,0,0,0,1,227368,4,SV_73ADPjbMtd0KUBg,304,2021-10-21_16h13.08.584,implicit_time,2021.1.4,Linux x86_64,59.95563283,0,0,NA,NA,NA,NA,1,0,0
1.9835,cursorjump,315,0,0.5,10,,0,,0,1,0.5,FALSE,practice,1,0.74375,-0.667556,2,0,14.6457,4,0,0,0,0,1,227368,4,SV_73ADPjbMtd0KUBg,304,2021-10-21_16h13.08.584,implicit_time,2021.1.4,Linux x86_64,59.95563283,0,0,NA,NA,NA,NA,1,0,0
2,cursorjump,315,0,0.5,10,,0,,0,1,0.5,FALSE,practice,1,0.74375,-0.667556,2,0,14.6457,4,0,0,0,0,1,227368,4,SV_73ADPjbMtd0KUBg,304,2021-10-21_16h13.08.584,implicit_time,2021.1.4,Linux x86_64,59.95563283,0,0,NA,NA,NA,NA,1,0,0
2.0169,cursorjump,315,0,0.5,10,,0,,0,1,0.5,FALSE,practice,1,0.74375,-0.667556,2,0,14.6457,4,0,0,0,0,1,227368,4,SV_73ADPjbMtd0KUBg,304,2021-10-21_16h13.08.584,implicit_time,2021.1.4,Linux x86_64,59.95563283,0,0,NA,NA,NA,NA,1,0,0
2.0332,cursorjump,315,0,0.5,10,,0,,0,1,0.5,FALSE,practice,1,0.74375,-0.667556,2,0,14.6457,4,0,0,0,0,1,227368,4,SV_73ADPjbMtd0KUBg,304,2021-10-21_16h13.08.584,implicit_time,2021.1.4,Linux x86_64,59.95563283,0,0,NA,NA,NA,NA,1,0,0
2.0497,cursorjump,315,0,0.5,10,,0,,0,1,0.5,FALSE,practice,1,0.74375,-0.667556,2,0,14.6457,4,0,0,0,0,1,227368,4,SV_73ADPjbMtd0KUBg,304,2021-10-21_16h13.08.584,implicit_time,2021.1.4,Linux x86_64,59.95563283,0,0,NA,NA,NA,NA,1,0,0
2.0667,cursorjump,315,0,0.5,10,,0,,0,1,0.5,FALSE,practice,1,0.741667,-0.667556,2,0,14.6457,4,0,0,0,0,1,227368,4,SV_73ADPjbMtd0KUBg,304,2021-10-21_16h13.08.584,implicit_time,2021.1.4,Linux x86_64,59.95563283,0,0,NA,NA,NA,NA,1,0,0
2.0835,cursorjump,315,0,0.5,10,,0,,0,1,0.5,FALSE,practice,1,0.7375,-0.667556,2,0,14.6457,4,0,0,0,0,1,227368,4,SV_73ADPjbMtd0KUBg,304,2021-10-21_16h13.08.584,implicit_time,2021.1.4,Linux x86_64,59.95563283,0,0,NA,NA,NA,NA,1,0,0
2.1,cursorjump,315,0,0.5,10,,0,,0,1,0.5,FALSE,practice,1,0.727083,-0.667556,2,0,14.6457,4,0,0,0,0,1,227368,4,SV_73ADPjbMtd0KUBg,304,2021-10-21_16h13.08.584,implicit_time,2021.1.4,Linux x86_64,59.95563283,0,0,NA,NA,NA,NA,1,0,0
2.1169,cursorjump,315,0,0.5,10,,0,,0,1,0.5,FALSE,practice,1,0.71875,-0.664444,2,0,14.6457,4,0,0,0,0,1,227368,4,SV_73ADPjbMtd0KUBg,304,2021-10-21_16h13.08.584,implicit_time,2021.1.4,Linux x86_64,59.95563283,0,0,NA,NA,NA,NA,1,0,0
2.1335,cursorjump,315,0,0.5,10,,0,,0,1,0.5,FALSE,practice,1,0.7,-0.661333,2,0,14.6457,4,0,0,0,0,1,227368,4,SV_73ADPjbMtd0KUBg,304,2021-10-21_16h13.08.584,implicit_time,2021.1.4,Linux x86_64,59.95563283,0,0,NA,NA,NA,NA,1,0,0
2.1498,cursorjump,315,0,0.5,10,,0,,0,1,0.5,FALSE,practice,1,0.679167,-0.655111,2,0,14.6457,4,0,0,0,0,1,227368,4,SV_73ADPjbMtd0KUBg,304,2021-10-21_16h13.08.584,implicit_time,2021.1.4,Linux x86_64,59.95563283,0,0,NA,NA,NA,NA,1,0,0
2.1665,cursorjump,315,0,0.5,10,,0,,0,1,0.5,FALSE,practice,1,0.6625,-0.648889,2,0,14.6457,4,0,0,0,0,1,227368,4,SV_73ADPjbMtd0KUBg,304,2021-10-21_16h13.08.584,implicit_time,2021.1.4,Linux x86_64,59.95563283,0,0,NA,NA,NA,NA,1,0,0
2.1835,cursorjump,315,0,0.5,10,,0,,0,1,0.5,FALSE,practice,1,0.654167,-0.642667,2,0,14.6457,4,0,0,0,0,1,227368,4,SV_73ADPjbMtd0KUBg,304,2021-10-21_16h13.08.584,implicit_time,2021.1.4,Linux x86_64,59.95563283,0,0,NA,NA,NA,NA,1,0,0
2.2,cursorjump,315,0,0.5,10,,0,,0,1,0.5,FALSE,practice,1,0.6375,-0.630222,2,0,14.6457,4,0,0,0,0,1,227368,4,SV_73ADPjbMtd0KUBg,304,2021-10-21_16h13.08.584,implicit_time,2021.1.4,Linux x86_64,59.95563283,0,0,NA,NA,NA,NA,1,0,0
2.2167,cursorjump,315,0,0.5,10,,0,,0,1,0.5,FALSE,practice,1,0.627083,-0.624,2,0,14.6457,4,0,0,0,0,1,227368,4,SV_73ADPjbMtd0KUBg,304,2021-10-21_16h13.08.584,implicit_time,2021.1.4,Linux x86_64,59.95563283,0,0,NA,NA,NA,NA,1,0,0
2.2335,cursorjump,315,0,0.5,10,,0,,0,1,0.5,FALSE,practice,1,0.608333,-0.614667,2,0,14.6457,4,0,0,0,0,1,227368,4,SV_73ADPjbMtd0KUBg,304,2021-10-21_16h13.08.584,implicit_time,2021.1.4,Linux x86_64,59.95563283,0,0,NA,NA,NA,NA,1,0,0
2.2505,cursorjump,315,0,0.5,10,,0,,0,1,0.5,FALSE,practice,1,0.589583,-0.605333,2,0,14.6457,4,0,0,0,0,1,227368,4,SV_73ADPjbMtd0KUBg,304,2021-10-21_16h13.08.584,implicit_time,2021.1.4,Linux x86_64,59.95563283,0,0,NA,NA,NA,NA,1,0,0
2.2667,cursorjump,315,0,0.5,10,,0,,0,1,0.5,FALSE,practice,1,0.570833,-0.599111,2,0,14.6457,4,0,0,0,0,1,227368,4,SV_73ADPjbMtd0KUBg,304,2021-10-21_16h13.08.584,implicit_time,2021.1.4,Linux x86_64,59.95563283,0,0,NA,NA,NA,NA,1,0,0
2.2834,cursorjump,315,0,0.5,10,,0,,0,1,0.5,FALSE,practice,1,0.558333,-0.596,2,0,14.6457,4,0,0,0,0,1,227368,4,SV_73ADPjbMtd0KUBg,304,2021-10-21_16h13.08.584,implicit_time,2021.1.4,Linux x86_64,59.95563283,0,0,NA,NA,NA,NA,1,0,0
2.3002,cursorjump,315,0,0.5,10,,0,,0,1,0.5,FALSE,practice,1,0.533333,-0.589778,2,0,14.6457,4,0,0,0,0,1,227368,4,SV_73ADPjbMtd0KUBg,304,2021-10-21_16h13.08.584,implicit_time,2021.1.4,Linux x86_64,59.95563283,0,0,NA,NA,NA,NA,1,0,0
2.3166,cursorjump,315,0,0.5,10,,0,,0,1,0.5,FALSE,practice,1,0.520833,-0.586667,2,0,14.6457,4,0,0,0,0,1,227368,4,SV_73ADPjbMtd0KUBg,304,2021-10-21_16h13.08.584,implicit_time,2021.1.4,Linux x86_64,59.95563283,0,0,NA,NA,NA,NA,1,1,0
2.3335,cursorjump,315,0,0.5,10,,0,,0,1,0.5,FALSE,practice,1,0.495833,-0.580444,2,0,14.6457,4,0,0,0,0,1,227368,4,SV_73ADPjbMtd0KUBg,304,2021-10-21_16h13.08.584,implicit_time,2021.1.4,Linux x86_64,59.95563283,0,0,NA,NA,NA,NA,1,0,0
2.35,cursorjump,315,0,0.5,10,,0,,0,1,0.5,FALSE,practice,1,0.475,-0.574222,2,0,14.6457,4,0,0,0,0,1,227368,4,SV_73ADPjbMtd0KUBg,304,2021-10-21_16h13.08.584,implicit_time,2021.1.4,Linux x86_64,59.95563283,0,0,NA,NA,NA,NA,1,0,0
2.3669,cursorjump,315,0,0.5,10,,0,,0,1,0.5,FALSE,practice,1,0.45625,-0.564889,2,0,14.6457,4,0,0,0,0,1,227368,4,SV_73ADPjbMtd0KUBg,304,2021-10-21_16h13.08.584,implicit_time,2021.1.4,Linux x86_64,59.95563283,0,0,NA,NA,NA,NA,1,0,0
2.3834,cursorjump,315,0,0.5,10,,0,,0,1,0.5,FALSE,practice,1,0.447917,-0.555556,2,0,14.6457,4,0,0,0,0,1,227368,4,SV_73ADPjbMtd0KUBg,304,2021-10-21_16h13.08.584,implicit_time,2021.1.4,Linux x86_64,59.95563283,0,0,NA,NA,NA,NA,1,0,0
2.4001,cursorjump,315,0,0.5,10,,0,,0,1,0.5,FALSE,practice,1,0.43125,-0.54,2,0,14.6457,4,0,0,0,0,1,227368,4,SV_73ADPjbMtd0KUBg,304,2021-10-21_16h13.08.584,implicit_time,2021.1.4,Linux x86_64,59.95563283,0,0,NA,NA,NA,NA,1,0,0
2.4168,cursorjump,315,0,0.5,10,,0,,0,1,0.5,FALSE,practice,1,0.422917,-0.530667,2,0,14.6457,4,0,0,0,0,1,227368,4,SV_73ADPjbMtd0KUBg,304,2021-10-21_16h13.08.584,implicit_time,2021.1.4,Linux x86_64,59.95563283,0,0,NA,NA,NA,NA,1,0,0
2.4335,cursorjump,315,0,0.5,10,,0,,0,1,0.5,FALSE,practice,1,0.410417,-0.515111,2,0,14.6457,4,0,0,0,0,1,227368,4,SV_73ADPjbMtd0KUBg,304,2021-10-21_16h13.08.584,implicit_time,2021.1.4,Linux x86_64,59.95563283,0,0,NA,NA,NA,NA,1,0,0
2.4502,cursorjump,315,0,0.5,10,,0,,0,1,0.5,FALSE,practice,1,0.397917,-0.499556,2,0,14.6457,4,0,0,0,0,1,227368,4,SV_73ADPjbMtd0KUBg,304,2021-10-21_16h13.08.584,implicit_time,2021.1.4,Linux x86_64,59.95563283,0,0,NA,NA,NA,NA,1,0,0
2.4668,cursorjump,315,0,0.5,10,,0,,0,1,0.5,FALSE,practice,1,0.3875,-0.484,2,0,14.6457,4,0,0,0,0,1,227368,4,SV_73ADPjbMtd0KUBg,304,2021-10-21_16h13.08.584,implicit_time,2021.1.4,Linux x86_64,59.95563283,0,0,NA,NA,NA,NA,1,0,0
2.4836,cursorjump,315,0,0.5,10,,0,,0,1,0.5,FALSE,practice,1,0.38125,-0.477778,2,0,14.6457,4,0,0,0,0,1,227368,4,SV_73ADPjbMtd0KUBg,304,2021-10-21_16h13.08.584,implicit_time,2021.1.4,Linux x86_64,59.95563283,0,0,NA,NA,NA,NA,1,0,0
2.5002,cursorjump,315,0,0.5,10,,0,,0,1,0.5,FALSE,practice,1,0.36875,-0.465333,2,0,14.6457,4,0,0,0,0,1,227368,4,SV_73ADPjbMtd0KUBg,304,2021-10-21_16h13.08.584,implicit_time,2021.1.4,Linux x86_64,59.95563283,0,0,NA,NA,NA,NA,1,0,0
2.517,cursorjump,315,0,0.5,10,,0,,0,1,0.5,FALSE,practice,1,0.358333,-0.459111,2,0,14.6457,4,0,0,0,0,1,227368,4,SV_73ADPjbMtd0KUBg,304,2021-10-21_16h13.08.584,implicit_time,2021.1.4,Linux x86_64,59.95563283,0,0,NA,NA,NA,NA,1,0,0
2.5336,cursorjump,315,0,0.5,10,,0,,0,1,0.5,FALSE,practice,1,0.352083,-0.452889,2,0,14.6457,4,0,0,0,0,1,227368,4,SV_73ADPjbMtd0KUBg,304,2021-10-21_16h13.08.584,implicit_time,2021.1.4,Linux x86_64,59.95563283,0,0,NA,NA,NA,NA,1,0,0
2.5502,cursorjump,315,0,0.5,10,,0,,0,1,0.5,FALSE,practice,1,0.341667,-0.446667,2,0,14.6457,4,0,0,0,0,1,227368,4,SV_73ADPjbMtd0KUBg,304,2021-10-21_16h13.08.584,implicit_time,2021.1.4,Linux x86_64,59.95563283,0,0,NA,NA,NA,NA,1,0,0
2.5668,cursorjump,315,0,0.5,10,,0,,0,1,0.5,FALSE,practice,1,0.327083,-0.440444,2,0,14.6457,4,0,0,0,0,1,227368,4,SV_73ADPjbMtd0KUBg,304,2021-10-21_16h13.08.584,implicit_time,2021.1.4,Linux x86_64,59.95563283,0,0,NA,NA,NA,NA,1,0,0
2.5838,cursorjump,315,0,0.5,10,,0,,0,1,0.5,FALSE,practice,1,0.320833,-0.437333,2,0,14.6457,4,0,0,0,0,1,227368,4,SV_73ADPjbMtd0KUBg,304,2021-10-21_16h13.08.584,implicit_time,2021.1.4,Linux x86_64,59.95563283,0,0,NA,NA,NA,NA,1,0,0
2.6002,cursorjump,315,0,0.5,10,,0,,0,1,0.5,FALSE,practice,1,0.30625,-0.428,2,0,14.6457,4,0,0,0,0,1,227368,4,SV_73ADPjbMtd0KUBg,304,2021-10-21_16h13.08.584,implicit_time,2021.1.4,Linux x86_64,59.95563283,0,0,NA,NA,NA,NA,1,0,0
2.6169,cursorjump,315,0,0.5,10,,0,,0,1,0.5,FALSE,practice,1,0.29375,-0.421778,2,0,14.6457,4,0,0,0,0,1,227368,4,SV_73ADPjbMtd0KUBg,304,2021-10-21_16h13.08.584,implicit_time,2021.1.4,Linux x86_64,59.95563283,0,0,NA,NA,NA,NA,1,0,0
2.6337,cursorjump,315,0,0.5,10,,0,,0,1,0.5,FALSE,practice,1,0.289583,-0.418667,2,0,14.6457,4,0,0,0,0,1,227368,4,SV_73ADPjbMtd0KUBg,304,2021-10-21_16h13.08.584,implicit_time,2021.1.4,Linux x86_64,59.95563283,0,0,NA,NA,NA,NA,1,0,0
2.6503,cursorjump,315,0,0.5,10,,0,,0,1,0.5,FALSE,practice,1,0.279167,-0.409333,2,0,14.6457,4,0,0,0,0,1,227368,4,SV_73ADPjbMtd0KUBg,304,2021-10-21_16h13.08.584,implicit_time,2021.1.4,Linux x86_64,59.95563283,0,0,NA,NA,NA,NA,1,0,0
2.6669,cursorjump,315,0,0.5,10,,0,,0,1,0.5,FALSE,practice,1,0.272917,-0.403111,2,0,14.6457,4,0,0,0,0,1,227368,4,SV_73ADPjbMtd0KUBg,304,2021-10-21_16h13.08.584,implicit_time,2021.1.4,Linux x86_64,59.95563283,0,0,NA,NA,NA,NA,1,0,0
2.684,cursorjump,315,0,0.5,10,,0,,0,1,0.5,FALSE,practice,1,0.260417,-0.393778,2,0,14.6457,4,0,0,0,0,1,227368,4,SV_73ADPjbMtd0KUBg,304,2021-10-21_16h13.08.584,implicit_time,2021.1.4,Linux x86_64,59.95563283,0,0,NA,NA,NA,NA,1,0,0
2.7007,cursorjump,315,0,0.5,10,,0,,0,1,0.5,FALSE,practice,1,0.247917,-0.381333,2,0,14.6457,4,0,0,0,0,1,227368,4,SV_73ADPjbMtd0KUBg,304,2021-10-21_16h13.08.584,implicit_time,2021.1.4,Linux x86_64,59.95563283,0,0,NA,NA,NA,NA,1,0,0
2.7172,cursorjump,315,0,0.5,10,,0,,0,1,0.5,FALSE,practice,1,0.235417,-0.368889,2,0,14.6457,4,0,0,0,0,1,227368,4,SV_73ADPjbMtd0KUBg,304,2021-10-21_16h13.08.584,implicit_time,2021.1.4,Linux x86_64,59.95563283,0,0,NA,NA,NA,NA,1,0,0
2.734,cursorjump,315,0,0.5,10,,0,,0,1,0.5,FALSE,practice,1,0.229167,-0.362667,2,0,14.6457,4,0,0,0,0,1,227368,4,SV_73ADPjbMtd0KUBg,304,2021-10-21_16h13.08.584,implicit_time,2021.1.4,Linux x86_64,59.95563283,0,0,NA,NA,NA,NA,1,0,0
2.7519,cursorjump,315,0,0.5,10,,0,,0,1,0.5,FALSE,practice,1,0.21875,-0.350222,2,0,14.6457,4,0,0,0,0,1,227368,4,SV_73ADPjbMtd0KUBg,304,2021-10-21_16h13.08.584,implicit_time,2021.1.4,Linux x86_64,59.95563283,0,0,NA,NA,NA,NA,1,0,0
2.7672,cursorjump,315,0,0.5,10,,0,,0,1,0.5,FALSE,practice,1,0.214583,-0.344,2,0,14.6457,4,0,0,0,0,1,227368,4,SV_73ADPjbMtd0KUBg,304,2021-10-21_16h13.08.584,implicit_time,2021.1.4,Linux x86_64,59.95563283,0,0,NA,NA,NA,NA,1,0,0
2.7841,cursorjump,315,0,0.5,10,,0,,0,1,0.5,FALSE,practice,1,0.204167,-0.331556,2,0,14.6457,4,0,0,0,0,1,227368,4,SV_73ADPjbMtd0KUBg,304,2021-10-21_16h13.08.584,implicit_time,2021.1.4,Linux x86_64,59.95563283,0,0,NA,NA,NA,NA,1,0,0
2.8026,cursorjump,315,0,0.5,10,,0,,0,1,0.5,FALSE,practice,1,0.195833,-0.322222,2,0,14.6457,4,0,0,0,0,1,227368,4,SV_73ADPjbMtd0KUBg,304,2021-10-21_16h13.08.584,implicit_time,2021.1.4,Linux x86_64,59.95563283,0,0,NA,NA,NA,NA,1,0,0
2.8182,cursorjump,315,0,0.5,10,,0,,0,1,0.5,FALSE,practice,1,0.183333,-0.312889,2,0,14.6457,4,0,0,0,0,1,227368,4,SV_73ADPjbMtd0KUBg,304,2021-10-21_16h13.08.584,implicit_time,2021.1.4,Linux x86_64,59.95563283,0,0,NA,NA,NA,NA,1,0,0
2.8346,cursorjump,315,0,0.5,10,,0,,0,1,0.5,FALSE,practice,1,0.179167,-0.306667,2,0,14.6457,4,0,0,0,0,1,227368,4,SV_73ADPjbMtd0KUBg,304,2021-10-21_16h13.08.584,implicit_time,2021.1.4,Linux x86_64,59.95563283,0,0,NA,NA,NA,NA,1,0,0
2.8508,cursorjump,315,0,0.5,10,,0,,0,1,0.5,FALSE,practice,1,0.166667,-0.294222,2,0,14.6457,4,0,0,0,0,1,227368,4,SV_73ADPjbMtd0KUBg,304,2021-10-21_16h13.08.584,implicit_time,2021.1.4,Linux x86_64,59.95563283,0,0,NA,NA,NA,NA,1,0,0
2.8674,cursorjump,315,0,0.5,10,,0,,0,1,0.5,FALSE,practice,1,0.160417,-0.288,2,0,14.6457,4,0,0,0,0,1,227368,4,SV_73ADPjbMtd0KUBg,304,2021-10-21_16h13.08.584,implicit_time,2021.1.4,Linux x86_64,59.95563283,0,0,NA,NA,NA,NA,1,0,0
2.8841,cursorjump,315,0,0.5,10,,0,,0,1,0.5,FALSE,practice,1,0.145833,-0.272444,2,0,14.6457,4,0,0,0,0,1,227368,4,SV_73ADPjbMtd0KUBg,304,2021-10-21_16h13.08.584,implicit_time,2021.1.4,Linux x86_64,59.95563283,0,0,NA,NA,NA,NA,1,0,0
2.9008,cursorjump,315,0,0.5,10,,0,,0,1,0.5,FALSE,practice,1,0.135417,-0.26,2,0,14.6457,4,0,0,0,0,1,227368,4,SV_73ADPjbMtd0KUBg,304,2021-10-21_16h13.08.584,implicit_time,2021.1.4,Linux x86_64,59.95563283,0,0,NA,NA,NA,NA,1,0,0
2.9175,cursorjump,315,0,0.5,10,,0,,0,1,0.5,FALSE,practice,1,0.122917,-0.247556,2,0,14.6457,4,0,0,0,0,1,227368,4,SV_73ADPjbMtd0KUBg,304,2021-10-21_16h13.08.584,implicit_time,2021.1.4,Linux x86_64,59.95563283,0,0,NA,NA,NA,NA,1,0,0
2.9345,cursorjump,315,0,0.5,10,,0,,0,1,0.5,FALSE,practice,1,0.116667,-0.241333,2,0,14.6457,4,0,0,0,0,1,227368,4,SV_73ADPjbMtd0KUBg,304,2021-10-21_16h13.08.584,implicit_time,2021.1.4,Linux x86_64,59.95563283,0,0,NA,NA,NA,NA,1,0,0
2.951,cursorjump,315,0,0.5,10,,0,,0,1,0.5,FALSE,practice,1,0.104167,-0.225778,2,0,14.6457,4,0,0,0,0,1,227368,4,SV_73ADPjbMtd0KUBg,304,2021-10-21_16h13.08.584,implicit_time,2021.1.4,Linux x86_64,59.95563283,0,0,NA,NA,NA,NA,1,0,0
2.9675,cursorjump,315,0,0.5,10,,0,,0,1,0.5,FALSE,practice,1,0.097917,-0.219556,2,0,14.6457,4,0,0,0,0,1,227368,4,SV_73ADPjbMtd0KUBg,304,2021-10-21_16h13.08.584,implicit_time,2021.1.4,Linux x86_64,59.95563283,0,0,NA,NA,NA,NA,1,0,0
2.9844,cursorjump,315,0,0.5,10,,0,,0,1,0.5,FALSE,practice,1,0.0875,-0.207111,2,0,14.6457,4,0,0,0,0,1,227368,4,SV_73ADPjbMtd0KUBg,304,2021-10-21_16h13.08.584,implicit_time,2021.1.4,Linux x86_64,59.95563283,0,0,NA,NA,NA,NA,1,0,0
3.001,cursorjump,315,0,0.5,10,,0,,0,1,0.5,FALSE,practice,1,0.077083,-0.191556,2,0,14.6457,4,0,0,0,0,1,227368,4,SV_73ADPjbMtd0KUBg,304,2021-10-21_16h13.08.584,implicit_time,2021.1.4,Linux x86_64,59.95563283,0,0,NA,NA,NA,NA,1,0,0
3.018,cursorjump,315,0,0.5,10,,0,,0,1,0.5,FALSE,practice,1,0.066667,-0.179111,2,0,14.6457,4,0,0,0,0,1,227368,4,SV_73ADPjbMtd0KUBg,304,2021-10-21_16h13.08.584,implicit_time,2021.1.4,Linux x86_64,59.95563283,0,0,NA,NA,NA,NA,1,0,0
3.0343,cursorjump,315,0,0.5,10,,0,,0,1,0.5,FALSE,practice,1,0.0625,-0.176,2,0,14.6457,4,0,0,0,0,1,227368,4,SV_73ADPjbMtd0KUBg,304,2021-10-21_16h13.08.584,implicit_time,2021.1.4,Linux x86_64,59.95563283,0,0,NA,NA,NA,NA,1,0,0
3.051,cursorjump,315,0,0.5,10,,0,,0,1,0.5,FALSE,practice,1,0.052083,-0.163556,2,0,14.6457,4,0,0,0,0,1,227368,4,SV_73ADPjbMtd0KUBg,304,2021-10-21_16h13.08.584,implicit_time,2021.1.4,Linux x86_64,59.95563283,0,0,NA,NA,NA,NA,1,0,0
3.0678,cursorjump,315,0,0.5,10,,0,,0,1,0.5,FALSE,practice,1,0.047917,-0.157333,2,0,14.6457,4,0,0,0,0,1,227368,4,SV_73ADPjbMtd0KUBg,304,2021-10-21_16h13.08.584,implicit_time,2021.1.4,Linux x86_64,59.95563283,0,0,NA,NA,NA,NA,1,0,0
3.0846,cursorjump,315,0,0.5,10,,0,,0,1,0.5,FALSE,practice,1,0.039583,-0.148,2,0,14.6457,4,0,0,0,0,1,227368,4,SV_73ADPjbMtd0KUBg,304,2021-10-21_16h13.08.584,implicit_time,2021.1.4,Linux x86_64,59.95563283,0,0,NA,NA,NA,NA,1,0,0
3.101,cursorjump,315,0,0.5,10,,0,,0,1,0.5,FALSE,practice,1,0.035417,-0.141778,2,0,14.6457,4,0,0,0,0,1,227368,4,SV_73ADPjbMtd0KUBg,304,2021-10-21_16h13.08.584,implicit_time,2021.1.4,Linux x86_64,59.95563283,0,0,NA,NA,NA,NA,1,0,0
3.1177,cursorjump,315,0,0.5,10,,0,,0,1,0.5,FALSE,practice,1,0.029167,-0.135556,2,0,14.6457,4,0,0,0,0,1,227368,4,SV_73ADPjbMtd0KUBg,304,2021-10-21_16h13.08.584,implicit_time,2021.1.4,Linux x86_64,59.95563283,0,0,NA,NA,NA,NA,1,0,0
3.1345,cursorjump,315,0,0.5,10,,0,,0,1,0.5,FALSE,practice,1,0.027083,-0.132444,2,0,14.6457,4,0,0,0,0,1,227368,4,SV_73ADPjbMtd0KUBg,304,2021-10-21_16h13.08.584,implicit_time,2021.1.4,Linux x86_64,59.95563283,0,0,NA,NA,NA,NA,1,0,0
3.1511,cursorjump,315,0,0.5,10,,0,,0,1,0.5,FALSE,practice,1,0.025,-0.129333,2,0,14.6457,4,0,0,0,0,1,227368,4,SV_73ADPjbMtd0KUBg,304,2021-10-21_16h13.08.584,implicit_time,2021.1.4,Linux x86_64,59.95563283,0,0,NA,NA,NA,NA,1,0,0
3.1677,cursorjump,315,0,0.5,10,,0,,0,1,0.5,FALSE,practice,1,0.022917,-0.126222,2,0,14.6457,4,0,0,0,0,1,227368,4,SV_73ADPjbMtd0KUBg,304,2021-10-21_16h13.08.584,implicit_time,2021.1.4,Linux x86_64,59.95563283,0,0,NA,NA,NA,NA,1,0,0
3.1846,cursorjump,315,0,0.5,10,,0,,0,1,0.5,FALSE,practice,1,0.020833,-0.126222,2,0,14.6457,4,0,0,0,0,1,227368,4,SV_73ADPjbMtd0KUBg,304,2021-10-21_16h13.08.584,implicit_time,2021.1.4,Linux x86_64,59.95563283,0,0,NA,NA,NA,NA,1,0,0
3.2011,cursorjump,315,0,0.5,10,,0,,0,1,0.5,FALSE,practice,1,0.020833,-0.123111,2,0,14.6457,4,0,0,0,0,1,227368,4,SV_73ADPjbMtd0KUBg,304,2021-10-21_16h13.08.584,implicit_time,2021.1.4,Linux x86_64,59.95563283,0,0,NA,NA,NA,NA,1,0,0
3.2179,cursorjump,315,0,0.5,10,,0,,0,1,0.5,FALSE,practice,1,0.01875,-0.12,2,0,14.6457,4,0,0,0,0,1,227368,4,SV_73ADPjbMtd0KUBg,304,2021-10-21_16h13.08.584,implicit_time,2021.1.4,Linux x86_64,59.95563283,0,0,NA,NA,NA,NA,1,0,0
3.2346,cursorjump,315,0,0.5,10,,0,,0,1,0.5,FALSE,practice,1,0.01875,-0.12,2,0,14.6457,4,0,0,0,0,1,227368,4,SV_73ADPjbMtd0KUBg,304,2021-10-21_16h13.08.584,implicit_time,2021.1.4,Linux x86_64,59.95563283,0,0,NA,NA,NA,NA,1,0,0
3.251,cursorjump,315,0,0.5,10,,0,,0,1,0.5,FALSE,practice,1,0.016667,-0.116889,2,0,14.6457,4,0,0,0,0,1,227368,4,SV_73ADPjbMtd0KUBg,304,2021-10-21_16h13.08.584,implicit_time,2021.1.4,Linux x86_64,59.95563283,0,0,NA,NA,NA,NA,1,0,0
3.2678,cursorjump,315,0,0.5,10,,0,,0,1,0.5,FALSE,practice,1,0.014583,-0.116889,2,0,14.6457,4,0,0,0,0,1,227368,4,SV_73ADPjbMtd0KUBg,304,2021-10-21_16h13.08.584,implicit_time,2021.1.4,Linux x86_64,59.95563283,0,0,NA,NA,NA,NA,1,0,0
3.2847,cursorjump,315,0,0.5,10,,0,,0,1,0.5,FALSE,practice,1,0.014583,-0.113778,2,0,14.6457,4,0,0,0,0,1,227368,4,SV_73ADPjbMtd0KUBg,304,2021-10-21_16h13.08.584,implicit_time,2021.1.4,Linux x86_64,59.95563283,0,0,NA,NA,NA,NA,1,0,0
3.3015,cursorjump,315,0,0.5,10,,0,,0,1,0.5,FALSE,practice,1,0.0125,-0.110667,2,0,14.6457,4,0,0,0,0,1,227368,4,SV_73ADPjbMtd0KUBg,304,2021-10-21_16h13.08.584,implicit_time,2021.1.4,Linux x86_64,59.95563283,0,0,NA,NA,NA,NA,1,0,0
3.3196,cursorjump,315,0,0.5,10,,0,,0,1,0.5,FALSE,practice,1,0.0125,-0.107556,2,0,14.6457,4,0,0,0,0,1,227368,4,SV_73ADPjbMtd0KUBg,304,2021-10-21_16h13.08.584,implicit_time,2021.1.4,Linux x86_64,59.95563283,0,0,NA,NA,NA,NA,1,0,0
3.3353,cursorjump,315,0,0.5,10,,0,,0,1,0.5,FALSE,practice,1,0.0125,-0.104444,2,0,14.6457,4,0,0,0,0,1,227368,4,SV_73ADPjbMtd0KUBg,304,2021-10-21_16h13.08.584,implicit_time,2021.1.4,Linux x86_64,59.95563283,0,0,NA,NA,NA,NA,1,0,0
3.3516,cursorjump,315,0,0.5,10,,0,,0,1,0.5,FALSE,practice,1,0.0125,-0.095111,2,0,14.6457,4,0,0,0,0,1,227368,4,SV_73ADPjbMtd0KUBg,304,2021-10-21_16h13.08.584,implicit_time,2021.1.4,Linux x86_64,59.95563283,0,0,NA,NA,NA,NA,1,0,0
3.3681,cursorjump,315,0,0.5,10,,0,,0,1,0.5,FALSE,practice,1,0.0125,-0.088889,2,0,14.6457,4,0,0,0,0,1,227368,4,SV_73ADPjbMtd0KUBg,304,2021-10-21_16h13.08.584,implicit_time,2021.1.4,Linux x86_64,59.95563283,0,0,NA,NA,NA,NA,1,0,0
3.385,cursorjump,315,0,0.5,10,,0,,0,1,0.5,FALSE,practice,1,0.010417,-0.073333,2,0,14.6457,4,0,0,0,0,1,227368,4,SV_73ADPjbMtd0KUBg,304,2021-10-21_16h13.08.584,implicit_time,2021.1.4,Linux x86_64,59.95563283,0,0,NA,NA,NA,NA,1,0,0
3.4013,cursorjump,315,0,0.5,10,,0,,0,1,0.5,FALSE,practice,1,0.010417,-0.060889,2,0,14.6457,4,0,0,0,0,1,227368,4,SV_73ADPjbMtd0KUBg,304,2021-10-21_16h13.08.584,implicit_time,2021.1.4,Linux x86_64,59.95563283,0,0,NA,NA,NA,NA,1,0,0
3.4183,cursorjump,315,0,0.5,10,,0,,0,1,0.5,FALSE,practice,1,0.008333,-0.051556,2,0,14.6457,4,0,0,0,0,1,227368,4,SV_73ADPjbMtd0KUBg,304,2021-10-21_16h13.08.584,implicit_time,2021.1.4,Linux x86_64,59.95563283,0,0,NA,NA,NA,NA,1,0,0
3.4351,cursorjump,315,0,0.5,10,,0,,0,1,0.5,FALSE,practice,1,0.00625,-0.048444,2,0,14.6457,4,0,0,0,0,1,227368,4,SV_73ADPjbMtd0KUBg,304,2021-10-21_16h13.08.584,implicit_time,2021.1.4,Linux x86_64,59.95563283,0,0,NA,NA,NA,NA,1,0,0
3.4515,cursorjump,315,0,0.5,10,,0,,0,1,0.5,FALSE,practice,1,0.004167,-0.042222,2,0,14.6457,4,0,0,0,0,1,227368,4,SV_73ADPjbMtd0KUBg,304,2021-10-21_16h13.08.584,implicit_time,2021.1.4,Linux x86_64,59.95563283,0,0,NA,NA,NA,NA,1,0,0
3.4684,cursorjump,315,0,0.5,10,,0,,0,1,0.5,FALSE,practice,1,0.004167,-0.039111,2,0,14.6457,4,0,0,0,0,1,227368,4,SV_73ADPjbMtd0KUBg,304,2021-10-21_16h13.08.584,implicit_time,2021.1.4,Linux x86_64,59.95563283,0,0,NA,NA,NA,NA,1,0,0
5e-04,cursorjump,305,0,0,10,,0,,0,0,0.5,FALSE,practice,0,0.010417,-0.008,1,0,22.3539,4,1,0,1,0,1,227368,4,SV_73ADPjbMtd0KUBg,304,2021-10-21_16h13.08.584,implicit_time,2021.1.4,Linux x86_64,59.95563283,0,0,NA,NA,NA,NA,0,0,1
0.0192,cursorjump,305,0,0,10,,0,,0,0,0.5,FALSE,practice,0,0.010417,-0.008,1,0,22.3539,4,1,0,1,0,1,227368,4,SV_73ADPjbMtd0KUBg,304,2021-10-21_16h13.08.584,implicit_time,2021.1.4,Linux x86_64,59.95563283,0,0,NA,NA,NA,NA,0,0,1
0.034,cursorjump,305,0,0,10,,0,,0,0,0.5,FALSE,practice,0,0.010417,-0.011111,1,0,22.3539,4,1,0,1,0,1,227368,4,SV_73ADPjbMtd0KUBg,304,2021-10-21_16h13.08.584,implicit_time,2021.1.4,Linux x86_64,59.95563283,0,0,NA,NA,NA,NA,0,0,1
0.05,cursorjump,305,0,0,10,,0,,0,0,0.5,FALSE,practice,0,0.008333,-0.014222,1,0,22.3539,4,1,0,1,0,1,227368,4,SV_73ADPjbMtd0KUBg,304,2021-10-21_16h13.08.584,implicit_time,2021.1.4,Linux x86_64,59.95563283,0,0,NA,NA,NA,NA,0,0,1
0.0665,cursorjump,305,0,0,10,,0,,0,0,0.5,FALSE,practice,0,0.004167,-0.014222,1,0,22.3539,4,1,0,1,0,1,227368,4,SV_73ADPjbMtd0KUBg,304,2021-10-21_16h13.08.584,implicit_time,2021.1.4,Linux x86_64,59.95563283,0,0,NA,NA,NA,NA,0,0,1
0.0841,cursorjump,305,0,0,10,,0,,0,0,0.5,FALSE,practice,0,-0.004167,-0.008,1,0,22.3539,4,1,0,1,0,1,227368,4,SV_73ADPjbMtd0KUBg,304,2021-10-21_16h13.08.584,implicit_time,2021.1.4,Linux x86_64,59.95563283,0,0,NA,NA,NA,NA,0,0,1
0.1,cursorjump,305,0,0,10,,0,,0,0,0.5,FALSE,practice,0,-0.010417,-0.004889,1,0,22.3539,4,1,0,1,0,1,227368,4,SV_73ADPjbMtd0KUBg,304,2021-10-21_16h13.08.584,implicit_time,2021.1.4,Linux x86_64,59.95563283,0,0,NA,NA,NA,NA,0,0,1
0.1167,cursorjump,305,0,0,10,,0,,0,0,0.5,FALSE,practice,0,-0.01875,-0.001778,1,0,22.3539,4,1,0,1,0,1,227368,4,SV_73ADPjbMtd0KUBg,304,2021-10-21_16h13.08.584,implicit_time,2021.1.4,Linux x86_64,59.95563283,0,0,NA,NA,NA,NA,0,0,1
0.1333,cursorjump,305,0,0,10,,0,,0,0,0.5,FALSE,practice,0,-0.029167,-0.011111,1,0,22.3539,4,1,0,1,0,1,227368,4,SV_73ADPjbMtd0KUBg,304,2021-10-21_16h13.08.584,implicit_time,2021.1.4,Linux x86_64,59.95563283,0,0,NA,NA,NA,NA,0,0,1
0.1504,cursorjump,305,0,0,10,,0,,0,0,0.5,FALSE,practice,0,-0.041667,-0.026667,1,0,22.3539,4,1,0,1,0,1,227368,4,SV_73ADPjbMtd0KUBg,304,2021-10-21_16h13.08.584,implicit_time,2021.1.4,Linux x86_64,59.95563283,0,0,NA,NA,NA,NA,0,0,1
0.1743,cursorjump,305,0,0,10,,0,,0,0,0.5,FALSE,practice,0,-0.041667,-0.026667,1,0,22.3539,4,1,0,1,0,1,227368,4,SV_73ADPjbMtd0KUBg,304,2021-10-21_16h13.08.584,implicit_time,2021.1.4,Linux x86_64,59.95563283,0,0,NA,NA,NA,NA,0,0,1
0.1831,cursorjump,305,0,0,10,,0,,0,0,0.5,FALSE,practice,0,-0.041667,-0.026667,1,0,22.3539,4,1,0,1,0,1,227368,4,SV_73ADPjbMtd0KUBg,304,2021-10-21_16h13.08.584,implicit_time,2021.1.4,Linux x86_64,59.95563283,0,0,NA,NA,NA,NA,0,0,1
0.1984,cursorjump,305,0,0,10,,0,,0,0,0.5,FALSE,practice,0,-0.041667,-0.026667,1,0,22.3539,4,1,0,1,0,1,227368,4,SV_73ADPjbMtd0KUBg,304,2021-10-21_16h13.08.584,implicit_time,2021.1.4,Linux x86_64,59.95563283,0,0,NA,NA,NA,NA,0,0,1
0.2164,cursorjump,305,0,0,10,,0,,0,0,0.5,FALSE,practice,0,-0.041667,-0.026667,1,0,22.3539,4,1,0,1,0,1,227368,4,SV_73ADPjbMtd0KUBg,304,2021-10-21_16h13.08.584,implicit_time,2021.1.4,Linux x86_64,59.95563283,0,0,NA,NA,NA,NA,0,0,1
0.2328,cursorjump,305,0,0,10,,0,,0,0,0.5,FALSE,practice,0,-0.041667,-0.026667,1,0,22.3539,4,1,0,1,0,1,227368,4,SV_73ADPjbMtd0KUBg,304,2021-10-21_16h13.08.584,implicit_time,2021.1.4,Linux x86_64,59.95563283,0,0,NA,NA,NA,NA,0,0,1
0.2499,cursorjump,305,0,0,10,,0,,0,0,0.5,FALSE,practice,0,-0.041667,-0.026667,1,0,22.3539,4,1,0,1,0,1,227368,4,SV_73ADPjbMtd0KUBg,304,2021-10-21_16h13.08.584,implicit_time,2021.1.4,Linux x86_64,59.95563283,0,0,NA,NA,NA,NA,0,0,1
0.2651,cursorjump,305,0,0,10,,0,,0,0,0.5,FALSE,practice,0,-0.041667,-0.026667,1,0,22.3539,4,1,0,1,0,1,227368,4,SV_73ADPjbMtd0KUBg,304,2021-10-21_16h13.08.584,implicit_time,2021.1.4,Linux x86_64,59.95563283,0,0,NA,NA,NA,NA,0,0,1
0.283,cursorjump,305,0,0,10,,0,,0,0,0.5,FALSE,practice,0,-0.041667,-0.026667,1,0,22.3539,4,1,0,1,0,1,227368,4,SV_73ADPjbMtd0KUBg,304,2021-10-21_16h13.08.584,implicit_time,2021.1.4,Linux x86_64,59.95563283,0,0,NA,NA,NA,NA,0,0,1
0.2996,cursorjump,305,0,0,10,,0,,0,0,0.5,FALSE,practice,0,-0.041667,-0.026667,1,0,22.3539,4,1,0,1,0,1,227368,4,SV_73ADPjbMtd0KUBg,304,2021-10-21_16h13.08.584,implicit_time,2021.1.4,Linux x86_64,59.95563283,0,0,NA,NA,NA,NA,0,0,1
0.3162,cursorjump,305,0,0,10,,0,,0,0,0.5,FALSE,practice,0,-0.041667,-0.026667,1,0,22.3539,4,1,0,1,0,1,227368,4,SV_73ADPjbMtd0KUBg,304,2021-10-21_16h13.08.584,implicit_time,2021.1.4,Linux x86_64,59.95563283,0,0,NA,NA,NA,NA,0,0,1
0.3326,cursorjump,305,0,0,10,,0,,0,0,0.5,FALSE,practice,0,-0.041667,-0.026667,1,0,22.3539,4,1,0,1,0,1,227368,4,SV_73ADPjbMtd0KUBg,304,2021-10-21_16h13.08.584,implicit_time,2021.1.4,Linux x86_64,59.95563283,0,0,NA,NA,NA,NA,0,0,1
0.3486,cursorjump,305,0,0,10,,0,,0,0,0.5,FALSE,practice,0,-0.041667,-0.026667,1,0,22.3539,4,1,0,1,0,1,227368,4,SV_73ADPjbMtd0KUBg,304,2021-10-21_16h13.08.584,implicit_time,2021.1.4,Linux x86_64,59.95563283,0,0,NA,NA,NA,NA,0,0,1
0.3664,cursorjump,305,0,0,10,,0,,0,0,0.5,FALSE,practice,0,-0.041667,-0.026667,1,0,22.3539,4,1,0,1,0,1,227368,4,SV_73ADPjbMtd0KUBg,304,2021-10-21_16h13.08.584,implicit_time,2021.1.4,Linux x86_64,59.95563283,0,0,NA,NA,NA,NA,0,0,1
0.3826,cursorjump,305,0,0,10,,0,,0,0,0.5,FALSE,practice,0,-0.041667,-0.026667,1,0,22.3539,4,1,0,1,0,1,227368,4,SV_73ADPjbMtd0KUBg,304,2021-10-21_16h13.08.584,implicit_time,2021.1.4,Linux x86_64,59.95563283,0,0,NA,NA,NA,NA,0,0,1
0.4008,cursorjump,305,0,0,10,,0,,0,0,0.5,FALSE,practice,0,-0.041667,-0.026667,1,0,22.3539,4,1,0,1,0,1,227368,4,SV_73ADPjbMtd0KUBg,304,2021-10-21_16h13.08.584,implicit_time,2021.1.4,Linux x86_64,59.95563283,0,0,NA,NA,NA,NA,0,0,1
0.4169,cursorjump,305,0,0,10,,0,,0,0,0.5,FALSE,practice,0,-0.041667,-0.026667,1,0,22.3539,4,1,0,1,0,1,227368,4,SV_73ADPjbMtd0KUBg,304,2021-10-21_16h13.08.584,implicit_time,2021.1.4,Linux x86_64,59.95563283,0,0,NA,NA,NA,NA,0,0,1
0.433,cursorjump,305,0,0,10,,0,,0,0,0.5,FALSE,practice,0,-0.041667,-0.026667,1,0,22.3539,4,1,0,1,0,1,227368,4,SV_73ADPjbMtd0KUBg,304,2021-10-21_16h13.08.584,implicit_time,2021.1.4,Linux x86_64,59.95563283,0,0,NA,NA,NA,NA,0,0,1
0.4497,cursorjump,305,0,0,10,,0,,0,0,0.5,FALSE,practice,0,-0.041667,-0.026667,1,0,22.3539,4,1,0,1,0,1,227368,4,SV_73ADPjbMtd0KUBg,304,2021-10-21_16h13.08.584,implicit_time,2021.1.4,Linux x86_64,59.95563283,0,0,NA,NA,NA,NA,0,0,1
0.4668,cursorjump,305,0,0,10,,0,,0,0,0.5,FALSE,practice,0,-0.041667,-0.026667,1,0,22.3539,4,1,0,1,0,1,227368,4,SV_73ADPjbMtd0KUBg,304,2021-10-21_16h13.08.584,implicit_time,2021.1.4,Linux x86_64,59.95563283,0,0,NA,NA,NA,NA,0,0,1
0.483,cursorjump,305,0,0,10,,0,,0,0,0.5,FALSE,practice,0,-0.041667,-0.026667,1,0,22.3539,4,1,0,1,0,1,227368,4,SV_73ADPjbMtd0KUBg,304,2021-10-21_16h13.08.584,implicit_time,2021.1.4,Linux x86_64,59.95563283,0,0,NA,NA,NA,NA,0,0,1
0.4997,cursorjump,305,0,0,10,,0,,0,0,0.5,FALSE,practice,0,-0.041667,-0.026667,1,0,22.3539,4,1,0,1,0,1,227368,4,SV_73ADPjbMtd0KUBg,304,2021-10-21_16h13.08.584,implicit_time,2021.1.4,Linux x86_64,59.95563283,0,0,NA,NA,NA,NA,0,0,1
0.5178,cursorjump,305,0,0,10,,0,,0,0,0.5,FALSE,practice,0,-0.041667,-0.026667,1,0,22.3539,4,1,0,1,0,1,227368,4,SV_73ADPjbMtd0KUBg,304,2021-10-21_16h13.08.584,implicit_time,2021.1.4,Linux x86_64,59.95563283,0,0,NA,NA,NA,NA,0,0,1
0.5335,cursorjump,305,0,0,10,,0,,0,0,0.5,FALSE,practice,0,-0.041667,-0.026667,1,0,22.3539,4,1,0,1,0,1,227368,4,SV_73ADPjbMtd0KUBg,304,2021-10-21_16h13.08.584,implicit_time,2021.1.4,Linux x86_64,59.95563283,0,0,NA,NA,NA,NA,0,0,1
0.5513,cursorjump,305,0,0,10,,0,,0,0,0.5,FALSE,practice,0,-0.18125,-0.527556,1,0,22.3539,4,1,0,1,0,1,227368,4,SV_73ADPjbMtd0KUBg,304,2021-10-21_16h13.08.584,implicit_time,2021.1.4,Linux x86_64,59.95563283,0,0,NA,NA,NA,NA,0,0,1
0.5685,cursorjump,305,0,0,10,,0,,0,0,0.5,FALSE,practice,0,-0.18125,-0.524444,1,0,22.3539,4,1,0,1,0,1,227368,4,SV_73ADPjbMtd0KUBg,304,2021-10-21_16h13.08.584,implicit_time,2021.1.4,Linux x86_64,59.95563283,0,0,NA,NA,NA,NA,0,0,1
0.585,cursorjump,305,0,0,10,,0,,0,0,0.5,FALSE,practice,0,-0.185417,-0.518222,1,0,22.3539,4,1,0,1,0,1,227368,4,SV_73ADPjbMtd0KUBg,304,2021-10-21_16h13.08.584,implicit_time,2021.1.4,Linux x86_64,59.95563283,0,0,NA,NA,NA,NA,0,0,1
0.6014,cursorjump,305,0,0,10,,0,,0,0,0.5,FALSE,practice,0,-0.185417,-0.505778,1,0,22.3539,4,1,0,1,0,1,227368,4,SV_73ADPjbMtd0KUBg,304,2021-10-21_16h13.08.584,implicit_time,2021.1.4,Linux x86_64,59.95563283,0,0,NA,NA,NA,NA,0,0,1
0.6187,cursorjump,305,0,0,10,,0,,0,0,0.5,FALSE,practice,0,-0.177083,-0.496444,1,0,22.3539,4,1,0,1,0,1,227368,4,SV_73ADPjbMtd0KUBg,304,2021-10-21_16h13.08.584,implicit_time,2021.1.4,Linux x86_64,59.95563283,0,0,NA,NA,NA,NA,0,0,1
0.6348,cursorjump,305,0,0,10,,0,,0,0,0.5,FALSE,practice,0,-0.172917,-0.493333,1,0,22.3539,4,1,0,1,0,1,227368,4,SV_73ADPjbMtd0KUBg,304,2021-10-21_16h13.08.584,implicit_time,2021.1.4,Linux x86_64,59.95563283,0,0,NA,NA,NA,NA,0,0,1
0.6534,cursorjump,305,0,0,10,,0,,0,0,0.5,FALSE,practice,0,-0.170833,-0.480889,1,0,22.3539,4,1,0,1,0,1,227368,4,SV_73ADPjbMtd0KUBg,304,2021-10-21_16h13.08.584,implicit_time,2021.1.4,Linux x86_64,59.95563283,0,0,NA,NA,NA,NA,0,0,1
0.6685,cursorjump,305,0,0,10,,0,,0,0,0.5,FALSE,practice,0,-0.172917,-0.477778,1,0,22.3539,4,1,0,1,0,1,227368,4,SV_73ADPjbMtd0KUBg,304,2021-10-21_16h13.08.584,implicit_time,2021.1.4,Linux x86_64,59.95563283,0,0,NA,NA,NA,NA,0,0,1
0.6848,cursorjump,305,0,0,10,,0,,0,0,0.5,FALSE,practice,0,-0.175,-0.474667,1,0,22.3539,4,1,0,1,0,1,227368,4,SV_73ADPjbMtd0KUBg,304,2021-10-21_16h13.08.584,implicit_time,2021.1.4,Linux x86_64,59.95563283,0,0,NA,NA,NA,NA,0,0,1
0.703,cursorjump,305,0,0,10,,0,,0,0,0.5,FALSE,practice,0,-0.1625,-0.477778,1,0,22.3539,4,1,0,1,0,1,227368,4,SV_73ADPjbMtd0KUBg,304,2021-10-21_16h13.08.584,implicit_time,2021.1.4,Linux x86_64,59.95563283,0,0,NA,NA,NA,NA,0,0,1
0.7188,cursorjump,305,0,0,10,,0,,0,0,0.5,FALSE,practice,0,-0.135417,-0.490222,1,0,22.3539,4,1,0,1,0,1,227368,4,SV_73ADPjbMtd0KUBg,304,2021-10-21_16h13.08.584,implicit_time,2021.1.4,Linux x86_64,59.95563283,0,0,NA,NA,NA,NA,0,0,1
0.7353,cursorjump,305,0,0,10,,0,,0,0,0.5,FALSE,practice,0,-0.116667,-0.496444,1,0,22.3539,4,1,0,1,0,1,227368,4,SV_73ADPjbMtd0KUBg,304,2021-10-21_16h13.08.584,implicit_time,2021.1.4,Linux x86_64,59.95563283,0,0,NA,NA,NA,NA,0,0,1
0.7527,cursorjump,305,0,0,10,,0,,0,0,0.5,FALSE,practice,0,-0.075,-0.518222,1,0,22.3539,4,1,0,1,0,1,227368,4,SV_73ADPjbMtd0KUBg,304,2021-10-21_16h13.08.584,implicit_time,2021.1.4,Linux x86_64,59.95563283,0,0,NA,NA,NA,NA,0,0,1
0.7706,cursorjump,305,0,0,10,,0,,0,0,0.5,FALSE,practice,0,-0.05625,-0.530667,1,0,22.3539,4,1,0,1,0,1,227368,4,SV_73ADPjbMtd0KUBg,304,2021-10-21_16h13.08.584,implicit_time,2021.1.4,Linux x86_64,59.95563283,0,0,NA,NA,NA,NA,0,0,1
0.7861,cursorjump,305,0,0,10,,0,,0,0,0.5,FALSE,practice,0,-0.016667,-0.561778,1,0,22.3539,4,1,0,1,0,1,227368,4,SV_73ADPjbMtd0KUBg,304,2021-10-21_16h13.08.584,implicit_time,2021.1.4,Linux x86_64,59.95563283,0,0,NA,NA,NA,NA,0,0,1
0.8019,cursorjump,305,0,0,10,,0,,0,0,0.5,FALSE,practice,0,0.020833,-0.599111,1,0,22.3539,4,1,0,1,0,1,227368,4,SV_73ADPjbMtd0KUBg,304,2021-10-21_16h13.08.584,implicit_time,2021.1.4,Linux x86_64,59.95563283,0,0,NA,NA,NA,NA,0,0,1
0.8185,cursorjump,305,0,0,10,,0,,0,0,0.5,FALSE,practice,0,0.060417,-0.630222,1,0,22.3539,4,1,0,1,0,1,227368,4,SV_73ADPjbMtd0KUBg,304,2021-10-21_16h13.08.584,implicit_time,2021.1.4,Linux x86_64,59.95563283,0,0,NA,NA,NA,NA,0,0,1
0.8348,cursorjump,305,0,0,10,,0,,0,0,0.5,FALSE,practice,0,0.08125,-0.645778,1,0,22.3539,4,1,0,1,0,1,227368,4,SV_73ADPjbMtd0KUBg,304,2021-10-21_16h13.08.584,implicit_time,2021.1.4,Linux x86_64,59.95563283,0,0,NA,NA,NA,NA,0,0,1
0.8516,cursorjump,305,0,0,10,,0,,0,0,0.5,FALSE,practice,0,0.120833,-0.670667,1,0,22.3539,4,1,0,1,0,1,227368,4,SV_73ADPjbMtd0KUBg,304,2021-10-21_16h13.08.584,implicit_time,2021.1.4,Linux x86_64,59.95563283,0,0,NA,NA,NA,NA,0,0,1
0.8689,cursorjump,305,0,0,10,,0,,0,0,0.5,FALSE,practice,0,0.139583,-0.68,1,0,22.3539,4,1,0,1,0,1,227368,4,SV_73ADPjbMtd0KUBg,304,2021-10-21_16h13.08.584,implicit_time,2021.1.4,Linux x86_64,59.95563283,0,0,NA,NA,NA,NA,0,0,1
0.8853,cursorjump,305,0,0,10,,0,,0,0,0.5,FALSE,practice,0,0.179167,-0.695556,1,0,22.3539,4,1,0,1,0,1,227368,4,SV_73ADPjbMtd0KUBg,304,2021-10-21_16h13.08.584,implicit_time,2021.1.4,Linux x86_64,59.95563283,0,0,NA,NA,NA,NA,0,0,1
0.9018,cursorjump,305,0,0,10,,0,,0,0,0.5,FALSE,practice,0,0.216667,-0.711111,1,0,22.3539,4,1,0,1,0,1,227368,4,SV_73ADPjbMtd0KUBg,304,2021-10-21_16h13.08.584,implicit_time,2021.1.4,Linux x86_64,59.95563283,0,0,NA,NA,NA,NA,0,0,1
0.9187,cursorjump,305,0,0,10,,0,,0,0,0.5,FALSE,practice,0,0.252083,-0.720444,1,0,22.3539,4,1,0,1,0,1,227368,4,SV_73ADPjbMtd0KUBg,304,2021-10-21_16h13.08.584,implicit_time,2021.1.4,Linux x86_64,59.95563283,0,0,NA,NA,NA,NA,0,0,1
0.9353,cursorjump,305,0,0,10,,0,,0,0,0.5,FALSE,practice,0,0.26875,-0.726667,1,0,22.3539,4,1,0,1,0,1,227368,4,SV_73ADPjbMtd0KUBg,304,2021-10-21_16h13.08.584,implicit_time,2021.1.4,Linux x86_64,59.95563283,0,0,NA,NA,NA,NA,0,0,1
0.9518,cursorjump,305,0,0,10,,0,,0,0,0.5,FALSE,practice,0,0.297917,-0.739111,1,0,22.3539,4,1,0,1,0,1,227368,4,SV_73ADPjbMtd0KUBg,304,2021-10-21_16h13.08.584,implicit_time,2021.1.4,Linux x86_64,59.95563283,0,0,NA,NA,NA,NA,0,0,1
0.9685,cursorjump,305,0,0,10,,0,,0,0,0.5,FALSE,practice,0,0.3125,-0.742222,1,0,22.3539,4,1,0,1,0,1,227368,4,SV_73ADPjbMtd0KUBg,304,2021-10-21_16h13.08.584,implicit_time,2021.1.4,Linux x86_64,59.95563283,0,0,NA,NA,NA,NA,0,0,1
0.9863,cursorjump,305,0,0,10,,0,,0,0,0.5,FALSE,practice,0,0.3375,-0.748444,1,0,22.3539,4,1,0,1,0,1,227368,4,SV_73ADPjbMtd0KUBg,304,2021-10-21_16h13.08.584,implicit_time,2021.1.4,Linux x86_64,59.95563283,0,0,NA,NA,NA,NA,0,0,1
1.0027,cursorjump,305,0,0,10,,0,,0,0,0.5,FALSE,practice,0,0.360417,-0.754667,1,0,22.3539,4,1,0,1,0,1,227368,4,SV_73ADPjbMtd0KUBg,304,2021-10-21_16h13.08.584,implicit_time,2021.1.4,Linux x86_64,59.95563283,0,0,NA,NA,NA,NA,0,0,1
1.0188,cursorjump,305,0,0,10,,0,,0,0,0.5,FALSE,practice,0,0.377083,-0.757778,1,0,22.3539,4,1,0,1,0,1,227368,4,SV_73ADPjbMtd0KUBg,304,2021-10-21_16h13.08.584,implicit_time,2021.1.4,Linux x86_64,59.95563283,0,0,NA,NA,NA,NA,0,0,1
1.0351,cursorjump,305,0,0,10,,0,,0,0,0.5,FALSE,practice,0,0.383333,-0.760889,1,0,22.3539,4,1,0,1,0,1,227368,4,SV_73ADPjbMtd0KUBg,304,2021-10-21_16h13.08.584,implicit_time,2021.1.4,Linux x86_64,59.95563283,0,0,NA,NA,NA,NA,0,0,1
1.0518,cursorjump,305,0,0,10,,0,,0,0,0.5,FALSE,practice,0,0.395833,-0.767111,1,0,22.3539,4,1,0,1,0,1,227368,4,SV_73ADPjbMtd0KUBg,304,2021-10-21_16h13.08.584,implicit_time,2021.1.4,Linux x86_64,59.95563283,0,0,NA,NA,NA,NA,0,0,1
1.0686,cursorjump,305,0,0,10,,0,,0,0,0.5,FALSE,practice,0,0.4,-0.770222,1,0,22.3539,4,1,0,1,0,1,227368,4,SV_73ADPjbMtd0KUBg,304,2021-10-21_16h13.08.584,implicit_time,2021.1.4,Linux x86_64,59.95563283,0,0,NA,NA,NA,NA,0,0,0
1.0851,cursorjump,305,0,0,10,,0,,0,0,0.5,FALSE,practice,0,0.408333,-0.773333,1,0,22.3539,4,1,0,1,0,1,227368,4,SV_73ADPjbMtd0KUBg,304,2021-10-21_16h13.08.584,implicit_time,2021.1.4,Linux x86_64,59.95563283,0,0,NA,NA,NA,NA,0,0,0
1.1018,cursorjump,305,0,0,10,,0,,0,0,0.5,FALSE,practice,0,0.4125,-0.776444,1,0,22.3539,4,1,0,1,0,1,227368,4,SV_73ADPjbMtd0KUBg,304,2021-10-21_16h13.08.584,implicit_time,2021.1.4,Linux x86_64,59.95563283,0,0,NA,NA,NA,NA,0,0,0
1.1192,cursorjump,305,0,0,10,,0,,0,0,0.5,FALSE,practice,0,0.4125,-0.776444,1,0,22.3539,4,1,0,1,0,1,227368,4,SV_73ADPjbMtd0KUBg,304,2021-10-21_16h13.08.584,implicit_time,2021.1.4,Linux x86_64,59.95563283,0,0,NA,NA,NA,NA,0,0,0
1.1349,cursorjump,305,0,0,10,,0,,0,0,0.5,FALSE,practice,0,0.4125,-0.776444,1,0,22.3539,4,1,0,1,0,1,227368,4,SV_73ADPjbMtd0KUBg,304,2021-10-21_16h13.08.584,implicit_time,2021.1.4,Linux x86_64,59.95563283,0,0,NA,NA,NA,NA,0,0,0
1.1513,cursorjump,305,0,0,10,,0,,0,0,0.5,FALSE,practice,0,0.410417,-0.776444,1,0,22.3539,4,1,0,1,0,1,227368,4,SV_73ADPjbMtd0KUBg,304,2021-10-21_16h13.08.584,implicit_time,2021.1.4,Linux x86_64,59.95563283,0,0,NA,NA,NA,NA,0,0,0
1.1747,cursorjump,305,0,0,10,,0,,0,0,0.5,FALSE,practice,0,0.402083,-0.770222,1,0,22.3539,4,1,0,1,0,1,227368,4,SV_73ADPjbMtd0KUBg,304,2021-10-21_16h13.08.584,implicit_time,2021.1.4,Linux x86_64,59.95563283,0,0,NA,NA,NA,NA,0,0,0
1.1871,cursorjump,305,0,0,10,,0,,0,0,0.5,FALSE,practice,0,0.395833,-0.764,1,0,22.3539,4,1,0,1,0,1,227368,4,SV_73ADPjbMtd0KUBg,304,2021-10-21_16h13.08.584,implicit_time,2021.1.4,Linux x86_64,59.95563283,0,0,NA,NA,NA,NA,0,0,0
1.2029,cursorjump,305,0,0,10,,0,,0,0,0.5,FALSE,practice,0,0.379167,-0.748444,1,0,22.3539,4,1,0,1,0,1,227368,4,SV_73ADPjbMtd0KUBg,304,2021-10-21_16h13.08.584,implicit_time,2021.1.4,Linux x86_64,59.95563283,0,0,NA,NA,NA,NA,0,0,0
1.2193,cursorjump,305,0,0,10,,0,,0,0,0.5,FALSE,practice,0,0.3625,-0.732889,1,0,22.3539,4,1,0,1,0,1,227368,4,SV_73ADPjbMtd0KUBg,304,2021-10-21_16h13.08.584,implicit_time,2021.1.4,Linux x86_64,59.95563283,0,0,NA,NA,NA,NA,0,0,0
1.2365,cursorjump,305,0,0,10,,0,,0,0,0.5,FALSE,practice,0,0.352083,-0.723556,1,0,22.3539,4,1,0,1,0,1,227368,4,SV_73ADPjbMtd0KUBg,304,2021-10-21_16h13.08.584,implicit_time,2021.1.4,Linux x86_64,59.95563283,0,0,NA,NA,NA,NA,0,0,0
1.2521,cursorjump,305,0,0,10,,0,,0,0,0.5,FALSE,practice,0,0.333333,-0.704889,1,0,22.3539,4,1,0,1,0,1,227368,4,SV_73ADPjbMtd0KUBg,304,2021-10-21_16h13.08.584,implicit_time,2021.1.4,Linux x86_64,59.95563283,0,0,NA,NA,NA,NA,0,0,0
1.269,cursorjump,305,0,0,10,,0,,0,0,0.5,FALSE,practice,0,0.325,-0.695556,1,0,22.3539,4,1,0,1,0,1,227368,4,SV_73ADPjbMtd0KUBg,304,2021-10-21_16h13.08.584,implicit_time,2021.1.4,Linux x86_64,59.95563283,0,0,NA,NA,NA,NA,0,0,0
1.2862,cursorjump,305,0,0,10,,0,,0,0,0.5,FALSE,practice,0,0.30625,-0.676889,1,0,22.3539,4,1,0,1,0,1,227368,4,SV_73ADPjbMtd0KUBg,304,2021-10-21_16h13.08.584,implicit_time,2021.1.4,Linux x86_64,59.95563283,0,0,NA,NA,NA,NA,0,0,0
1.3025,cursorjump,305,0,0,10,,0,,0,0,0.5,FALSE,practice,0,0.2875,-0.661333,1,0,22.3539,4,1,0,1,0,1,227368,4,SV_73ADPjbMtd0KUBg,304,2021-10-21_16h13.08.584,implicit_time,2021.1.4,Linux x86_64,59.95563283,0,0,NA,NA,NA,NA,0,0,0
1.3192,cursorjump,305,0,0,10,,0,,0,0,0.5,FALSE,practice,0,0.270833,-0.645778,1,0,22.3539,4,1,0,1,0,1,227368,4,SV_73ADPjbMtd0KUBg,304,2021-10-21_16h13.08.584,implicit_time,2021.1.4,Linux x86_64,59.95563283,0,0,NA,NA,NA,NA,0,0,0
1.3355,cursorjump,305,0,0,10,,0,,0,0,0.5,FALSE,practice,0,0.2625,-0.639556,1,0,22.3539,4,1,0,1,0,1,227368,4,SV_73ADPjbMtd0KUBg,304,2021-10-21_16h13.08.584,implicit_time,2021.1.4,Linux x86_64,59.95563283,0,0,NA,NA,NA,NA,0,0,0
1.3521,cursorjump,305,0,0,10,,0,,0,0,0.5,FALSE,practice,0,0.245833,-0.627111,1,0,22.3539,4,1,0,1,0,1,227368,4,SV_73ADPjbMtd0KUBg,304,2021-10-21_16h13.08.584,implicit_time,2021.1.4,Linux x86_64,59.95563283,0,0,NA,NA,NA,NA,0,0,0
1.3693,cursorjump,305,0,0,10,,0,,0,0,0.5,FALSE,practice,0,0.2375,-0.620889,1,0,22.3539,4,1,0,1,0,1,227368,4,SV_73ADPjbMtd0KUBg,304,2021-10-21_16h13.08.584,implicit_time,2021.1.4,Linux x86_64,59.95563283,0,0,NA,NA,NA,NA,0,0,0
1.3856,cursorjump,305,0,0,10,,0,,0,0,0.5,FALSE,practice,0,0.220833,-0.605333,1,0,22.3539,4,1,0,1,0,1,227368,4,SV_73ADPjbMtd0KUBg,304,2021-10-21_16h13.08.584,implicit_time,2021.1.4,Linux x86_64,59.95563283,0,0,NA,NA,NA,NA,0,0,0
1.4022,cursorjump,305,0,0,10,,0,,0,0,0.5,FALSE,practice,0,0.202083,-0.589778,1,0,22.3539,4,1,0,1,0,1,227368,4,SV_73ADPjbMtd0KUBg,304,2021-10-21_16h13.08.584,implicit_time,2021.1.4,Linux x86_64,59.95563283,0,0,NA,NA,NA,NA,0,0,0
1.4191,cursorjump,305,0,0,10,,0,,0,0,0.5,FALSE,practice,0,0.18125,-0.577333,1,0,22.3539,4,1,0,1,0,1,227368,4,SV_73ADPjbMtd0KUBg,304,2021-10-21_16h13.08.584,implicit_time,2021.1.4,Linux x86_64,59.95563283,0,0,NA,NA,NA,NA,0,0,0
1.4354,cursorjump,305,0,0,10,,0,,0,0,0.5,FALSE,practice,0,0.16875,-0.568,1,0,22.3539,4,1,0,1,0,1,227368,4,SV_73ADPjbMtd0KUBg,304,2021-10-21_16h13.08.584,implicit_time,2021.1.4,Linux x86_64,59.95563283,0,0,NA,NA,NA,NA,0,0,0
1.4529,cursorjump,305,0,0,10,,0,,0,0,0.5,FALSE,practice,0,0.145833,-0.552444,1,0,22.3539,4,1,0,1,0,1,227368,4,SV_73ADPjbMtd0KUBg,304,2021-10-21_16h13.08.584,implicit_time,2021.1.4,Linux x86_64,59.95563283,0,0,NA,NA,NA,NA,0,0,0
1.472,cursorjump,305,0,0,10,,0,,0,0,0.5,FALSE,practice,0,0.122917,-0.533778,1,0,22.3539,4,1,0,1,0,1,227368,4,SV_73ADPjbMtd0KUBg,304,2021-10-21_16h13.08.584,implicit_time,2021.1.4,Linux x86_64,59.95563283,0,0,NA,NA,NA,NA,0,0,0
1.4927,cursorjump,305,0,0,10,,0,,0,0,0.5,FALSE,practice,0,0.102083,-0.515111,1,0,22.3539,4,1,0,1,0,1,227368,4,SV_73ADPjbMtd0KUBg,304,2021-10-21_16h13.08.584,implicit_time,2021.1.4,Linux x86_64,59.95563283,0,0,NA,NA,NA,NA,0,0,0
1.5109,cursorjump,305,0,0,10,,0,,0,0,0.5,FALSE,practice,0,0.08125,-0.496444,1,0,22.3539,4,1,0,1,0,1,227368,4,SV_73ADPjbMtd0KUBg,304,2021-10-21_16h13.08.584,implicit_time,2021.1.4,Linux x86_64,59.95563283,0,0,NA,NA,NA,NA,0,0,0
1.5197,cursorjump,305,0,0,10,,0,,0,0,0.5,FALSE,practice,0,0.08125,-0.496444,1,0,22.3539,4,1,0,1,0,1,227368,4,SV_73ADPjbMtd0KUBg,304,2021-10-21_16h13.08.584,implicit_time,2021.1.4,Linux x86_64,59.95563283,0,0,NA,NA,NA,NA,0,0,0
1.5379,cursorjump,305,0,0,10,,0,,0,0,0.5,FALSE,practice,0,0.060417,-0.474667,1,0,22.3539,4,1,0,1,0,1,227368,4,SV_73ADPjbMtd0KUBg,304,2021-10-21_16h13.08.584,implicit_time,2021.1.4,Linux x86_64,59.95563283,0,0,NA,NA,NA,NA,0,0,0
1.5528,cursorjump,305,0,0,10,,0,,0,0,0.5,FALSE,practice,0,0.039583,-0.452889,1,0,22.3539,4,1,0,1,0,1,227368,4,SV_73ADPjbMtd0KUBg,304,2021-10-21_16h13.08.584,implicit_time,2021.1.4,Linux x86_64,59.95563283,0,0,NA,NA,NA,NA,0,0,0
1.5694,cursorjump,305,0,0,10,,0,,0,0,0.5,FALSE,practice,0,0.029167,-0.440444,1,0,22.3539,4,1,0,1,0,1,227368,4,SV_73ADPjbMtd0KUBg,304,2021-10-21_16h13.08.584,implicit_time,2021.1.4,Linux x86_64,59.95563283,0,0,NA,NA,NA,NA,0,0,0
1.5857,cursorjump,305,0,0,10,,0,,0,0,0.5,FALSE,practice,0,0.010417,-0.418667,1,0,22.3539,4,1,0,1,0,1,227368,4,SV_73ADPjbMtd0KUBg,304,2021-10-21_16h13.08.584,implicit_time,2021.1.4,Linux x86_64,59.95563283,0,0,NA,NA,NA,NA,0,0,0
1.6025,cursorjump,305,0,0,10,,0,,0,0,0.5,FALSE,practice,0,-0.008333,-0.4,1,0,22.3539,4,1,0,1,0,1,227368,4,SV_73ADPjbMtd0KUBg,304,2021-10-21_16h13.08.584,implicit_time,2021.1.4,Linux x86_64,59.95563283,0,0,NA,NA,NA,NA,0,0,0
1.6193,cursorjump,305,0,0,10,,0,,0,0,0.5,FALSE,practice,0,-0.01875,-0.393778,1,0,22.3539,4,1,0,1,0,1,227368,4,SV_73ADPjbMtd0KUBg,304,2021-10-21_16h13.08.584,implicit_time,2021.1.4,Linux x86_64,59.95563283,0,0,NA,NA,NA,NA,0,0,0
1.6356,cursorjump,305,0,0,10,,0,,0,0,0.5,FALSE,practice,0,-0.035417,-0.375111,1,0,22.3539,4,1,0,1,0,1,227368,4,SV_73ADPjbMtd0KUBg,304,2021-10-21_16h13.08.584,implicit_time,2021.1.4,Linux x86_64,59.95563283,0,0,NA,NA,NA,NA,0,0,0
1.6524,cursorjump,305,0,0,10,,0,,0,0,0.5,FALSE,practice,0,-0.05,-0.356444,1,0,22.3539,4,1,0,1,0,1,227368,4,SV_73ADPjbMtd0KUBg,304,2021-10-21_16h13.08.584,implicit_time,2021.1.4,Linux x86_64,59.95563283,0,0,NA,NA,NA,NA,0,0,0
1.6695,cursorjump,305,0,0,10,,0,,0,0,0.5,FALSE,practice,0,-0.058333,-0.347111,1,0,22.3539,4,1,0,1,0,1,227368,4,SV_73ADPjbMtd0KUBg,304,2021-10-21_16h13.08.584,implicit_time,2021.1.4,Linux x86_64,59.95563283,0,0,NA,NA,NA,NA,0,0,0
1.686,cursorjump,305,0,0,10,,0,,0,0,0.5,FALSE,practice,0,-0.072917,-0.331556,1,0,22.3539,4,1,0,1,0,1,227368,4,SV_73ADPjbMtd0KUBg,304,2021-10-21_16h13.08.584,implicit_time,2021.1.4,Linux x86_64,59.95563283,0,0,NA,NA,NA,NA,0,0,0
1.7026,cursorjump,305,0,0,10,,0,,0,0,0.5,FALSE,practice,0,-0.085417,-0.319111,1,0,22.3539,4,1,0,1,0,1,227368,4,SV_73ADPjbMtd0KUBg,304,2021-10-21_16h13.08.584,implicit_time,2021.1.4,Linux x86_64,59.95563283,0,0,NA,NA,NA,NA,0,0,0
1.7191,cursorjump,305,0,0,10,,0,,0,0,0.5,FALSE,practice,0,-0.09375,-0.309778,1,0,22.3539,4,1,0,1,0,1,227368,4,SV_73ADPjbMtd0KUBg,304,2021-10-21_16h13.08.584,implicit_time,2021.1.4,Linux x86_64,59.95563283,0,0,NA,NA,NA,NA,0,0,0
1.7356,cursorjump,305,0,0,10,,0,,0,0,0.5,FALSE,practice,0,-0.10625,-0.297333,1,0,22.3539,4,1,0,1,0,1,227368,4,SV_73ADPjbMtd0KUBg,304,2021-10-21_16h13.08.584,implicit_time,2021.1.4,Linux x86_64,59.95563283,0,0,NA,NA,NA,NA,0,0,0
1.7535,cursorjump,305,0,0,10,,0,,0,0,0.5,FALSE,practice,0,-0.11875,-0.284889,1,0,22.3539,4,1,0,1,0,1,227368,4,SV_73ADPjbMtd0KUBg,304,2021-10-21_16h13.08.584,implicit_time,2021.1.4,Linux x86_64,59.95563283,0,0,NA,NA,NA,NA,0,0,0
1.7695,cursorjump,305,0,0,10,,0,,0,0,0.5,FALSE,practice,0,-0.125,-0.281778,1,0,22.3539,4,1,0,1,0,1,227368,4,SV_73ADPjbMtd0KUBg,304,2021-10-21_16h13.08.584,implicit_time,2021.1.4,Linux x86_64,59.95563283,0,0,NA,NA,NA,NA,0,0,0
1.7858,cursorjump,305,0,0,10,,0,,0,0,0.5,FALSE,practice,0,-0.135417,-0.269333,1,0,22.3539,4,1,0,1,0,1,227368,4,SV_73ADPjbMtd0KUBg,304,2021-10-21_16h13.08.584,implicit_time,2021.1.4,Linux x86_64,59.95563283,0,0,NA,NA,NA,NA,0,0,0
1.8024,cursorjump,305,0,0,10,,0,,0,0,0.5,FALSE,practice,0,-0.145833,-0.26,1,0,22.3539,4,1,0,1,0,1,227368,4,SV_73ADPjbMtd0KUBg,304,2021-10-21_16h13.08.584,implicit_time,2021.1.4,Linux x86_64,59.95563283,0,0,NA,NA,NA,NA,0,0,0
1.8194,cursorjump,305,0,0,10,,0,,0,0,0.5,FALSE,practice,0,-0.15,-0.256889,1,0,22.3539,4,1,0,1,0,1,227368,4,SV_73ADPjbMtd0KUBg,304,2021-10-21_16h13.08.584,implicit_time,2021.1.4,Linux x86_64,59.95563283,0,0,NA,NA,NA,NA,0,0,0
1.8357,cursorjump,305,0,0,10,,0,,0,0,0.5,FALSE,practice,0,-0.160417,-0.247556,1,0,22.3539,4,1,0,1,0,1,227368,4,SV_73ADPjbMtd0KUBg,304,2021-10-21_16h13.08.584,implicit_time,2021.1.4,Linux x86_64,59.95563283,0,0,NA,NA,NA,NA,0,0,0
1.8525,cursorjump,305,0,0,10,,0,,0,0,0.5,FALSE,practice,0,-0.16875,-0.235111,1,0,22.3539,4,1,0,1,0,1,227368,4,SV_73ADPjbMtd0KUBg,304,2021-10-21_16h13.08.584,implicit_time,2021.1.4,Linux x86_64,59.95563283,0,0,NA,NA,NA,NA,0,0,0
1.8695,cursorjump,305,0,0,10,,0,,0,0,0.5,FALSE,practice,0,-0.172917,-0.232,1,0,22.3539,4,1,0,1,0,1,227368,4,SV_73ADPjbMtd0KUBg,304,2021-10-21_16h13.08.584,implicit_time,2021.1.4,Linux x86_64,59.95563283,0,0,NA,NA,NA,NA,0,0,0
1.8859,cursorjump,305,0,0,10,,0,,0,0,0.5,FALSE,practice,0,-0.183333,-0.222667,1,0,22.3539,4,1,0,1,0,1,227368,4,SV_73ADPjbMtd0KUBg,304,2021-10-21_16h13.08.584,implicit_time,2021.1.4,Linux x86_64,59.95563283,0,0,NA,NA,NA,NA,0,0,0
1.9026,cursorjump,305,0,0,10,,0,,0,0,0.5,FALSE,practice,0,-0.191667,-0.213333,1,0,22.3539,4,1,0,1,0,1,227368,4,SV_73ADPjbMtd0KUBg,304,2021-10-21_16h13.08.584,implicit_time,2021.1.4,Linux x86_64,59.95563283,0,0,NA,NA,NA,NA,0,0,0
1.9236,cursorjump,305,0,0,10,,0,,0,0,0.5,FALSE,practice,0,-0.202083,-0.204,1,0,22.3539,4,1,0,1,0,1,227368,4,SV_73ADPjbMtd0KUBg,304,2021-10-21_16h13.08.584,implicit_time,2021.1.4,Linux x86_64,59.95563283,0,0,NA,NA,NA,NA,0,0,0
1.9378,cursorjump,305,0,0,10,,0,,0,0,0.5,FALSE,practice,0,-0.208333,-0.197778,1,0,22.3539,4,1,0,1,0,1,227368,4,SV_73ADPjbMtd0KUBg,304,2021-10-21_16h13.08.584,implicit_time,2021.1.4,Linux x86_64,59.95563283,0,0,NA,NA,NA,NA,0,0,0
1.9529,cursorjump,305,0,0,10,,0,,0,0,0.5,FALSE,practice,0,-0.220833,-0.188444,1,0,22.3539,4,1,0,1,0,1,227368,4,SV_73ADPjbMtd0KUBg,304,2021-10-21_16h13.08.584,implicit_time,2021.1.4,Linux x86_64,59.95563283,0,0,NA,NA,NA,NA,0,0,0
1.9712,cursorjump,305,0,0,10,,0,,0,0,0.5,FALSE,practice,0,-0.233333,-0.176,1,0,22.3539,4,1,0,1,0,1,227368,4,SV_73ADPjbMtd0KUBg,304,2021-10-21_16h13.08.584,implicit_time,2021.1.4,Linux x86_64,59.95563283,0,0,NA,NA,NA,NA,0,0,0
1.986,cursorjump,305,0,0,10,,0,,0,0,0.5,FALSE,practice,0,-0.2375,-0.172889,1,0,22.3539,4,1,0,1,0,1,227368,4,SV_73ADPjbMtd0KUBg,304,2021-10-21_16h13.08.584,implicit_time,2021.1.4,Linux x86_64,59.95563283,0,0,NA,NA,NA,NA,0,0,0
2.0045,cursorjump,305,0,0,10,,0,,0,0,0.5,FALSE,practice,0,-0.247917,-0.163556,1,0,22.3539,4,1,0,1,0,1,227368,4,SV_73ADPjbMtd0KUBg,304,2021-10-21_16h13.08.584,implicit_time,2021.1.4,Linux x86_64,59.95563283,0,0,NA,NA,NA,NA,0,0,0
2.0201,cursorjump,305,0,0,10,,0,,0,0,0.5,FALSE,practice,0,-0.254167,-0.157333,1,0,22.3539,4,1,0,1,0,1,227368,4,SV_73ADPjbMtd0KUBg,304,2021-10-21_16h13.08.584,implicit_time,2021.1.4,Linux x86_64,59.95563283,0,0,NA,NA,NA,NA,0,0,0
2.0364,cursorjump,305,0,0,10,,0,,0,0,0.5,FALSE,practice,0,-0.266667,-0.144889,1,0,22.3539,4,1,0,1,0,1,227368,4,SV_73ADPjbMtd0KUBg,304,2021-10-21_16h13.08.584,implicit_time,2021.1.4,Linux x86_64,59.95563283,0,0,NA,NA,NA,NA,0,0,0
2.053,cursorjump,305,0,0,10,,0,,0,0,0.5,FALSE,practice,0,-0.283333,-0.129333,1,0,22.3539,4,1,0,1,0,1,227368,4,SV_73ADPjbMtd0KUBg,304,2021-10-21_16h13.08.584,implicit_time,2021.1.4,Linux x86_64,59.95563283,0,0,NA,NA,NA,NA,0,0,0
2.07,cursorjump,305,0,0,10,,0,,0,0,0.5,FALSE,practice,0,-0.291667,-0.12,1,0,22.3539,4,1,0,1,0,1,227368,4,SV_73ADPjbMtd0KUBg,304,2021-10-21_16h13.08.584,implicit_time,2021.1.4,Linux x86_64,59.95563283,0,0,NA,NA,NA,NA,0,0,0
2.0863,cursorjump,305,0,0,10,,0,,0,0,0.5,FALSE,practice,0,-0.30625,-0.104444,1,0,22.3539,4,1,0,1,0,1,227368,4,SV_73ADPjbMtd0KUBg,304,2021-10-21_16h13.08.584,implicit_time,2021.1.4,Linux x86_64,59.95563283,0,0,NA,NA,NA,NA,0,0,0
2.1031,cursorjump,305,0,0,10,,0,,0,0,0.5,FALSE,practice,0,-0.320833,-0.092,1,0,22.3539,4,1,0,1,0,1,227368,4,SV_73ADPjbMtd0KUBg,304,2021-10-21_16h13.08.584,implicit_time,2021.1.4,Linux x86_64,59.95563283,0,0,NA,NA,NA,NA,0,0,0
2.1197,cursorjump,305,0,0,10,,0,,0,0,0.5,FALSE,practice,0,-0.329167,-0.082667,1,0,22.3539,4,1,0,1,0,1,227368,4,SV_73ADPjbMtd0KUBg,304,2021-10-21_16h13.08.584,implicit_time,2021.1.4,Linux x86_64,59.95563283,0,0,NA,NA,NA,NA,0,0,0
2.1366,cursorjump,305,0,0,10,,0,,0,0,0.5,FALSE,practice,0,-0.34375,-0.067111,1,0,22.3539,4,1,0,1,0,1,227368,4,SV_73ADPjbMtd0KUBg,304,2021-10-21_16h13.08.584,implicit_time,2021.1.4,Linux x86_64,59.95563283,0,0,NA,NA,NA,NA,0,0,0
2.1532,cursorjump,305,0,0,10,,0,,0,0,0.5,FALSE,practice,0,-0.358333,-0.054667,1,0,22.3539,4,1,0,1,0,1,227368,4,SV_73ADPjbMtd0KUBg,304,2021-10-21_16h13.08.584,implicit_time,2021.1.4,Linux x86_64,59.95563283,0,0,NA,NA,NA,NA,0,0,0
2.1699,cursorjump,305,0,0,10,,0,,0,0,0.5,FALSE,practice,0,-0.364583,-0.051556,1,0,22.3539,4,1,0,1,0,1,227368,4,SV_73ADPjbMtd0KUBg,304,2021-10-21_16h13.08.584,implicit_time,2021.1.4,Linux x86_64,59.95563283,0,0,NA,NA,NA,NA,0,0,0
2.1875,cursorjump,305,0,0,10,,0,,0,0,0.5,FALSE,practice,0,-0.372917,-0.039111,1,0,22.3539,4,1,0,1,0,1,227368,4,SV_73ADPjbMtd0KUBg,304,2021-10-21_16h13.08.584,implicit_time,2021.1.4,Linux x86_64,59.95563283,0,0,NA,NA,NA,NA,0,0,0
2.2032,cursorjump,305,0,0,10,,0,,0,0,0.5,FALSE,practice,0,-0.379167,-0.032889,1,0,22.3539,4,1,0,1,0,1,227368,4,SV_73ADPjbMtd0KUBg,304,2021-10-21_16h13.08.584,implicit_time,2021.1.4,Linux x86_64,59.95563283,0,0,NA,NA,NA,NA,0,0,0
2.2197,cursorjump,305,0,0,10,,0,,0,0,0.5,FALSE,practice,0,-0.38125,-0.032889,1,0,22.3539,4,1,0,1,0,1,227368,4,SV_73ADPjbMtd0KUBg,304,2021-10-21_16h13.08.584,implicit_time,2021.1.4,Linux x86_64,59.95563283,0,0,NA,NA,NA,NA,0,0,0
2.2365,cursorjump,305,0,0,10,,0,,0,0,0.5,FALSE,practice,0,-0.38125,-0.029778,1,0,22.3539,4,1,0,1,0,1,227368,4,SV_73ADPjbMtd0KUBg,304,2021-10-21_16h13.08.584,implicit_time,2021.1.4,Linux x86_64,59.95563283,0,0,NA,NA,NA,NA,0,0,0
2.253,cursorjump,305,0,0,10,,0,,0,0,0.5,FALSE,practice,0,-0.38125,-0.029778,1,0,22.3539,4,1,0,1,0,1,227368,4,SV_73ADPjbMtd0KUBg,304,2021-10-21_16h13.08.584,implicit_time,2021.1.4,Linux x86_64,59.95563283,0,0,NA,NA,NA,NA,0,0,0
2.2695,cursorjump,305,0,0,10,,0,,0,0,0.5,FALSE,practice,0,-0.38125,-0.029778,1,0,22.3539,4,1,0,1,0,1,227368,4,SV_73ADPjbMtd0KUBg,304,2021-10-21_16h13.08.584,implicit_time,2021.1.4,Linux x86_64,59.95563283,0,0,NA,NA,NA,NA,0,0,0
2.286,cursorjump,305,0,0,10,,0,,0,0,0.5,FALSE,practice,0,-0.377083,-0.032889,1,0,22.3539,4,1,0,1,0,1,227368,4,SV_73ADPjbMtd0KUBg,304,2021-10-21_16h13.08.584,implicit_time,2021.1.4,Linux x86_64,59.95563283,0,0,NA,NA,NA,NA,0,0,0
2.3033,cursorjump,305,0,0,10,,0,,0,0,0.5,FALSE,practice,0,-0.366667,-0.039111,1,0,22.3539,4,1,0,1,0,1,227368,4,SV_73ADPjbMtd0KUBg,304,2021-10-21_16h13.08.584,implicit_time,2021.1.4,Linux x86_64,59.95563283,0,0,NA,NA,NA,NA,0,0,0
2.32,cursorjump,305,0,0,10,,0,,0,0,0.5,FALSE,practice,0,-0.358333,-0.045333,1,0,22.3539,4,1,0,1,0,1,227368,4,SV_73ADPjbMtd0KUBg,304,2021-10-21_16h13.08.584,implicit_time,2021.1.4,Linux x86_64,59.95563283,0,0,NA,NA,NA,NA,0,0,0
2.3365,cursorjump,305,0,0,10,,0,,0,0,0.5,FALSE,practice,0,-0.333333,-0.060889,1,0,22.3539,4,1,0,1,0,1,227368,4,SV_73ADPjbMtd0KUBg,304,2021-10-21_16h13.08.584,implicit_time,2021.1.4,Linux x86_64,59.95563283,0,0,NA,NA,NA,NA,0,0,0
2.3533,cursorjump,305,0,0,10,,0,,0,0,0.5,FALSE,practice,0,-0.302083,-0.082667,1,0,22.3539,4,1,0,1,0,1,227368,4,SV_73ADPjbMtd0KUBg,304,2021-10-21_16h13.08.584,implicit_time,2021.1.4,Linux x86_64,59.95563283,0,0,NA,NA,NA,NA,0,0,0
2.3702,cursorjump,305,0,0,10,,0,,0,0,0.5,FALSE,practice,0,-0.270833,-0.110667,1,0,22.3539,4,1,0,1,0,1,227368,4,SV_73ADPjbMtd0KUBg,304,2021-10-21_16h13.08.584,implicit_time,2021.1.4,Linux x86_64,59.95563283,0,0,NA,NA,NA,NA,0,0,0
2.3869,cursorjump,305,0,0,10,,0,,0,0,0.5,FALSE,practice,0,-0.254167,-0.126222,1,0,22.3539,4,1,0,1,0,1,227368,4,SV_73ADPjbMtd0KUBg,304,2021-10-21_16h13.08.584,implicit_time,2021.1.4,Linux x86_64,59.95563283,0,0,NA,NA,NA,NA,0,0,0
2.4034,cursorjump,305,0,0,10,,0,,0,0,0.5,FALSE,practice,0,-0.214583,-0.163556,1,0,22.3539,4,1,0,1,0,1,227368,4,SV_73ADPjbMtd0KUBg,304,2021-10-21_16h13.08.584,implicit_time,2021.1.4,Linux x86_64,59.95563283,0,0,NA,NA,NA,NA,0,0,0
2.4218,cursorjump,305,0,0,10,,0,,0,0,0.5,FALSE,practice,0,-0.19375,-0.185333,1,0,22.3539,4,1,0,1,0,1,227368,4,SV_73ADPjbMtd0KUBg,304,2021-10-21_16h13.08.584,implicit_time,2021.1.4,Linux x86_64,59.95563283,0,0,NA,NA,NA,NA,0,0,0
2.437,cursorjump,305,0,0,10,,0,,0,0,0.5,FALSE,practice,0,-0.147917,-0.228889,1,0,22.3539,4,1,0,1,0,1,227368,4,SV_73ADPjbMtd0KUBg,304,2021-10-21_16h13.08.584,implicit_time,2021.1.4,Linux x86_64,59.95563283,0,0,NA,NA,NA,NA,0,0,0
2.4537,cursorjump,305,0,0,10,,0,,0,0,0.5,FALSE,practice,0,-0.1,-0.275556,1,0,22.3539,4,1,0,1,0,1,227368,4,SV_73ADPjbMtd0KUBg,304,2021-10-21_16h13.08.584,implicit_time,2021.1.4,Linux x86_64,59.95563283,0,0,NA,NA,NA,NA,0,0,0
2.4706,cursorjump,305,0,0,10,,0,,0,0,0.5,FALSE,practice,0,-0.047917,-0.322222,1,0,22.3539,4,1,0,1,0,1,227368,4,SV_73ADPjbMtd0KUBg,304,2021-10-21_16h13.08.584,implicit_time,2021.1.4,Linux x86_64,59.95563283,0,0,NA,NA,NA,NA,0,0,0
2.4867,cursorjump,305,0,0,10,,0,,0,0,0.5,FALSE,practice,0,-0.01875,-0.344,1,0,22.3539,4,1,0,1,0,1,227368,4,SV_73ADPjbMtd0KUBg,304,2021-10-21_16h13.08.584,implicit_time,2021.1.4,Linux x86_64,59.95563283,0,0,NA,NA,NA,NA,0,0,0
2.5034,cursorjump,305,0,0,10,,0,,0,0,0.5,FALSE,practice,0,0.04375,-0.390667,1,0,22.3539,4,1,0,1,0,1,227368,4,SV_73ADPjbMtd0KUBg,304,2021-10-21_16h13.08.584,implicit_time,2021.1.4,Linux x86_64,59.95563283,0,0,NA,NA,NA,NA,0,0,0
2.5205,cursorjump,305,0,0,10,,0,,0,0,0.5,FALSE,practice,0,0.075,-0.409333,1,0,22.3539,4,1,0,1,0,1,227368,4,SV_73ADPjbMtd0KUBg,304,2021-10-21_16h13.08.584,implicit_time,2021.1.4,Linux x86_64,59.95563283,0,0,NA,NA,NA,NA,0,0,0
2.5367,cursorjump,305,0,0,10,,0,,0,0,0.5,FALSE,practice,0,0.139583,-0.449778,1,0,22.3539,4,1,0,1,0,1,227368,4,SV_73ADPjbMtd0KUBg,304,2021-10-21_16h13.08.584,implicit_time,2021.1.4,Linux x86_64,59.95563283,0,0,NA,NA,NA,NA,0,0,0
2.5537,cursorjump,305,0,0,10,,0,,0,0,0.5,FALSE,practice,0,0.204167,-0.490222,1,0,22.3539,4,1,0,1,0,1,227368,4,SV_73ADPjbMtd0KUBg,304,2021-10-21_16h13.08.584,implicit_time,2021.1.4,Linux x86_64,59.95563283,0,0,NA,NA,NA,NA,0,0,0
2.5703,cursorjump,305,0,0,10,,0,,0,0,0.5,FALSE,practice,0,0.2625,-0.527556,1,0,22.3539,4,1,0,1,0,1,227368,4,SV_73ADPjbMtd0KUBg,304,2021-10-21_16h13.08.584,implicit_time,2021.1.4,Linux x86_64,59.95563283,0,0,NA,NA,NA,NA,0,0,0
2.5869,cursorjump,305,0,0,10,,0,,0,0,0.5,FALSE,practice,0,0.291667,-0.543111,1,0,22.3539,4,1,0,1,0,1,227368,4,SV_73ADPjbMtd0KUBg,304,2021-10-21_16h13.08.584,implicit_time,2021.1.4,Linux x86_64,59.95563283,0,0,NA,NA,NA,NA,0,0,0
2.6033,cursorjump,305,0,0,10,,0,,0,0,0.5,FALSE,practice,0,0.347917,-0.571111,1,0,22.3539,4,1,0,1,0,1,227368,4,SV_73ADPjbMtd0KUBg,304,2021-10-21_16h13.08.584,implicit_time,2021.1.4,Linux x86_64,59.95563283,0,0,NA,NA,NA,NA,0,0,0
2.6205,cursorjump,305,0,0,10,,0,,0,0,0.5,FALSE,practice,0,0.372917,-0.580444,1,0,22.3539,4,1,0,1,0,1,227368,4,SV_73ADPjbMtd0KUBg,304,2021-10-21_16h13.08.584,implicit_time,2021.1.4,Linux x86_64,59.95563283,0,0,NA,NA,NA,NA,0,0,0
2.6369,cursorjump,305,0,0,10,,0,,0,0,0.5,FALSE,practice,0,0.414583,-0.586667,1,0,22.3539,4,1,0,1,0,1,227368,4,SV_73ADPjbMtd0KUBg,304,2021-10-21_16h13.08.584,implicit_time,2021.1.4,Linux x86_64,59.95563283,0,0,NA,NA,NA,NA,0,0,0
2.6535,cursorjump,305,0,0,10,,0,,0,0,0.5,FALSE,practice,0,0.429167,-0.583556,1,0,22.3539,4,1,0,1,0,1,227368,4,SV_73ADPjbMtd0KUBg,304,2021-10-21_16h13.08.584,implicit_time,2021.1.4,Linux x86_64,59.95563283,0,0,NA,NA,NA,NA,0,0,0
2.6704,cursorjump,305,0,0,10,,0,,0,0,0.5,FALSE,practice,0,0.45,-0.574222,1,0,22.3539,4,1,0,1,0,1,227368,4,SV_73ADPjbMtd0KUBg,304,2021-10-21_16h13.08.584,implicit_time,2021.1.4,Linux x86_64,59.95563283,0,0,NA,NA,NA,NA,0,0,0
2.6868,cursorjump,305,0,0,10,,0,,0,0,0.5,FALSE,practice,0,0.470833,-0.561778,1,0,22.3539,4,1,0,1,0,1,227368,4,SV_73ADPjbMtd0KUBg,304,2021-10-21_16h13.08.584,implicit_time,2021.1.4,Linux x86_64,59.95563283,0,0,NA,NA,NA,NA,0,0,0
2.7035,cursorjump,305,0,0,10,,0,,0,0,0.5,FALSE,practice,0,0.497917,-0.552444,1,0,22.3539,4,1,0,1,0,1,227368,4,SV_73ADPjbMtd0KUBg,304,2021-10-21_16h13.08.584,implicit_time,2021.1.4,Linux x86_64,59.95563283,0,0,NA,NA,NA,NA,0,0,0
2.7204,cursorjump,305,0,0,10,,0,,0,0,0.5,FALSE,practice,0,0.5125,-0.549333,1,0,22.3539,4,1,0,1,0,1,227368,4,SV_73ADPjbMtd0KUBg,304,2021-10-21_16h13.08.584,implicit_time,2021.1.4,Linux x86_64,59.95563283,0,0,NA,NA,NA,NA,0,0,0
2.7371,cursorjump,305,0,0,10,,0,,0,0,0.5,FALSE,practice,0,0.54375,-0.552444,1,0,22.3539,4,1,0,1,0,1,227368,4,SV_73ADPjbMtd0KUBg,304,2021-10-21_16h13.08.584,implicit_time,2021.1.4,Linux x86_64,59.95563283,0,0,NA,NA,NA,NA,0,0,0
2.7536,cursorjump,305,0,0,10,,0,,0,0,0.5,FALSE,practice,0,0.560417,-0.555556,1,0,22.3539,4,1,0,1,0,1,227368,4,SV_73ADPjbMtd0KUBg,304,2021-10-21_16h13.08.584,implicit_time,2021.1.4,Linux x86_64,59.95563283,0,0,NA,NA,NA,NA,0,0,0
2.7702,cursorjump,305,0,0,10,,0,,0,0,0.5,FALSE,practice,0,0.5875,-0.568,1,0,22.3539,4,1,0,1,0,1,227368,4,SV_73ADPjbMtd0KUBg,304,2021-10-21_16h13.08.584,implicit_time,2021.1.4,Linux x86_64,59.95563283,0,0,NA,NA,NA,NA,0,0,0
2.7868,cursorjump,305,0,0,10,,0,,0,0,0.5,FALSE,practice,0,0.610417,-0.586667,1,0,22.3539,4,1,0,1,0,1,227368,4,SV_73ADPjbMtd0KUBg,304,2021-10-21_16h13.08.584,implicit_time,2021.1.4,Linux x86_64,59.95563283,0,0,NA,NA,NA,NA,0,0,0
2.8036,cursorjump,305,0,0,10,,0,,0,0,0.5,FALSE,practice,0,0.625,-0.611556,1,0,22.3539,4,1,0,1,0,1,227368,4,SV_73ADPjbMtd0KUBg,304,2021-10-21_16h13.08.584,implicit_time,2021.1.4,Linux x86_64,59.95563283,0,0,NA,NA,NA,NA,0,0,0
2.8203,cursorjump,305,0,0,10,,0,,0,0,0.5,FALSE,practice,0,0.63125,-0.620889,1,0,22.3539,4,1,0,1,0,1,227368,4,SV_73ADPjbMtd0KUBg,304,2021-10-21_16h13.08.584,implicit_time,2021.1.4,Linux x86_64,59.95563283,0,0,NA,NA,NA,NA,0,0,0
2.8369,cursorjump,305,0,0,10,,0,,0,0,0.5,FALSE,practice,0,0.6375,-0.639556,1,0,22.3539,4,1,0,1,0,1,227368,4,SV_73ADPjbMtd0KUBg,304,2021-10-21_16h13.08.584,implicit_time,2021.1.4,Linux x86_64,59.95563283,0,0,NA,NA,NA,NA,0,0,0
2.8537,cursorjump,305,0,0,10,,0,,0,0,0.5,FALSE,practice,0,0.641667,-0.648889,1,0,22.3539,4,1,0,1,0,1,227368,4,SV_73ADPjbMtd0KUBg,304,2021-10-21_16h13.08.584,implicit_time,2021.1.4,Linux x86_64,59.95563283,0,0,NA,NA,NA,NA,0,0,0
2.8705,cursorjump,305,0,0,10,,0,,0,0,0.5,FALSE,practice,0,0.645833,-0.658222,1,0,22.3539,4,1,0,1,0,1,227368,4,SV_73ADPjbMtd0KUBg,304,2021-10-21_16h13.08.584,implicit_time,2021.1.4,Linux x86_64,59.95563283,0,0,NA,NA,NA,NA,0,0,0
2.8883,cursorjump,305,0,0,10,,0,,0,0,0.5,FALSE,practice,0,0.641667,-0.664444,1,0,22.3539,4,1,0,1,0,1,227368,4,SV_73ADPjbMtd0KUBg,304,2021-10-21_16h13.08.584,implicit_time,2021.1.4,Linux x86_64,59.95563283,0,0,NA,NA,NA,NA,0,0,0
2.905,cursorjump,305,0,0,10,,0,,0,0,0.5,FALSE,practice,0,0.633333,-0.661333,1,0,22.3539,4,1,0,1,0,1,227368,4,SV_73ADPjbMtd0KUBg,304,2021-10-21_16h13.08.584,implicit_time,2021.1.4,Linux x86_64,59.95563283,0,0,NA,NA,NA,NA,0,0,0
2.9208,cursorjump,305,0,0,10,,0,,0,0,0.5,FALSE,practice,0,0.627083,-0.658222,1,0,22.3539,4,1,0,1,0,1,227368,4,SV_73ADPjbMtd0KUBg,304,2021-10-21_16h13.08.584,implicit_time,2021.1.4,Linux x86_64,59.95563283,0,0,NA,NA,NA,NA,0,0,0
2.9375,cursorjump,305,0,0,10,,0,,0,0,0.5,FALSE,practice,0,0.616667,-0.648889,1,0,22.3539,4,1,0,1,0,1,227368,4,SV_73ADPjbMtd0KUBg,304,2021-10-21_16h13.08.584,implicit_time,2021.1.4,Linux x86_64,59.95563283,0,0,NA,NA,NA,NA,0,0,0
2.9544,cursorjump,305,0,0,10,,0,,0,0,0.5,FALSE,practice,0,0.60625,-0.639556,1,0,22.3539,4,1,0,1,0,1,227368,4,SV_73ADPjbMtd0KUBg,304,2021-10-21_16h13.08.584,implicit_time,2021.1.4,Linux x86_64,59.95563283,0,0,NA,NA,NA,NA,0,0,0
2.9709,cursorjump,305,0,0,10,,0,,0,0,0.5,FALSE,practice,0,0.6,-0.633333,1,0,22.3539,4,1,0,1,0,1,227368,4,SV_73ADPjbMtd0KUBg,304,2021-10-21_16h13.08.584,implicit_time,2021.1.4,Linux x86_64,59.95563283,0,0,NA,NA,NA,NA,0,0,0
2.9874,cursorjump,305,0,0,10,,0,,0,0,0.5,FALSE,practice,0,0.583333,-0.620889,1,0,22.3539,4,1,0,1,0,1,227368,4,SV_73ADPjbMtd0KUBg,304,2021-10-21_16h13.08.584,implicit_time,2021.1.4,Linux x86_64,59.95563283,0,0,NA,NA,NA,NA,0,0,0
3.004,cursorjump,305,0,0,10,,0,,0,0,0.5,FALSE,practice,0,0.560417,-0.605333,1,0,22.3539,4,1,0,1,0,1,227368,4,SV_73ADPjbMtd0KUBg,304,2021-10-21_16h13.08.584,implicit_time,2021.1.4,Linux x86_64,59.95563283,0,0,NA,NA,NA,NA,0,0,0
3.0215,cursorjump,305,0,0,10,,0,,0,0,0.5,FALSE,practice,0,0.547917,-0.596,1,0,22.3539,4,1,0,1,0,1,227368,4,SV_73ADPjbMtd0KUBg,304,2021-10-21_16h13.08.584,implicit_time,2021.1.4,Linux x86_64,59.95563283,0,0,NA,NA,NA,NA,0,0,0
3.0394,cursorjump,305,0,0,10,,0,,0,0,0.5,FALSE,practice,0,0.522917,-0.580444,1,0,22.3539,4,1,0,1,0,1,227368,4,SV_73ADPjbMtd0KUBg,304,2021-10-21_16h13.08.584,implicit_time,2021.1.4,Linux x86_64,59.95563283,0,0,NA,NA,NA,NA,0,0,0
3.0542,cursorjump,305,0,0,10,,0,,0,0,0.5,FALSE,practice,0,0.497917,-0.561778,1,0,22.3539,4,1,0,1,0,1,227368,4,SV_73ADPjbMtd0KUBg,304,2021-10-21_16h13.08.584,implicit_time,2021.1.4,Linux x86_64,59.95563283,0,0,NA,NA,NA,NA,0,0,0
3.0709,cursorjump,305,0,0,10,,0,,0,0,0.5,FALSE,practice,0,0.4875,-0.555556,1,0,22.3539,4,1,0,1,0,1,227368,4,SV_73ADPjbMtd0KUBg,304,2021-10-21_16h13.08.584,implicit_time,2021.1.4,Linux x86_64,59.95563283,0,0,NA,NA,NA,NA,0,0,0
3.0873,cursorjump,305,0,0,10,,0,,0,0,0.5,FALSE,practice,0,0.464583,-0.536889,1,0,22.3539,4,1,0,1,0,1,227368,4,SV_73ADPjbMtd0KUBg,304,2021-10-21_16h13.08.584,implicit_time,2021.1.4,Linux x86_64,59.95563283,0,0,NA,NA,NA,NA,0,0,0
3.1043,cursorjump,305,0,0,10,,0,,0,0,0.5,FALSE,practice,0,0.44375,-0.518222,1,0,22.3539,4,1,0,1,0,1,227368,4,SV_73ADPjbMtd0KUBg,304,2021-10-21_16h13.08.584,implicit_time,2021.1.4,Linux x86_64,59.95563283,0,0,NA,NA,NA,NA,0,0,0
3.1223,cursorjump,305,0,0,10,,0,,0,0,0.5,FALSE,practice,0,0.420833,-0.499556,1,0,22.3539,4,1,0,1,0,1,227368,4,SV_73ADPjbMtd0KUBg,304,2021-10-21_16h13.08.584,implicit_time,2021.1.4,Linux x86_64,59.95563283,0,0,NA,NA,NA,NA,0,0,0
3.1378,cursorjump,305,0,0,10,,0,,0,0,0.5,FALSE,practice,0,0.408333,-0.487111,1,0,22.3539,4,1,0,1,0,1,227368,4,SV_73ADPjbMtd0KUBg,304,2021-10-21_16h13.08.584,implicit_time,2021.1.4,Linux x86_64,59.95563283,0,0,NA,NA,NA,NA,0,0,0
3.1542,cursorjump,305,0,0,10,,0,,0,0,0.5,FALSE,practice,0,0.385417,-0.462222,1,0,22.3539,4,1,0,1,0,1,227368,4,SV_73ADPjbMtd0KUBg,304,2021-10-21_16h13.08.584,implicit_time,2021.1.4,Linux x86_64,59.95563283,0,0,NA,NA,NA,NA,0,0,0
3.171,cursorjump,305,0,0,10,,0,,0,0,0.5,FALSE,practice,0,0.372917,-0.449778,1,0,22.3539,4,1,0,1,0,1,227368,4,SV_73ADPjbMtd0KUBg,304,2021-10-21_16h13.08.584,implicit_time,2021.1.4,Linux x86_64,59.95563283,0,0,NA,NA,NA,NA,0,0,0
3.1877,cursorjump,305,0,0,10,,0,,0,0,0.5,FALSE,practice,0,0.347917,-0.424889,1,0,22.3539,4,1,0,1,0,1,227368,4,SV_73ADPjbMtd0KUBg,304,2021-10-21_16h13.08.584,implicit_time,2021.1.4,Linux x86_64,59.95563283,0,0,NA,NA,NA,NA,0,0,0
3.2041,cursorjump,305,0,0,10,,0,,0,0,0.5,FALSE,practice,0,0.325,-0.4,1,0,22.3539,4,1,0,1,0,1,227368,4,SV_73ADPjbMtd0KUBg,304,2021-10-21_16h13.08.584,implicit_time,2021.1.4,Linux x86_64,59.95563283,0,0,NA,NA,NA,NA,0,0,0
3.2211,cursorjump,305,0,0,10,,0,,0,0,0.5,FALSE,practice,0,0.314583,-0.387556,1,0,22.3539,4,1,0,1,0,1,227368,4,SV_73ADPjbMtd0KUBg,304,2021-10-21_16h13.08.584,implicit_time,2021.1.4,Linux x86_64,59.95563283,0,0,NA,NA,NA,NA,0,0,0
3.2376,cursorjump,305,0,0,10,,0,,0,0,0.5,FALSE,practice,0,0.289583,-0.362667,1,0,22.3539,4,1,0,1,0,1,227368,4,SV_73ADPjbMtd0KUBg,304,2021-10-21_16h13.08.584,implicit_time,2021.1.4,Linux x86_64,59.95563283,0,0,NA,NA,NA,NA,0,0,0
3.2545,cursorjump,305,0,0,10,,0,,0,0,0.5,FALSE,practice,0,0.2625,-0.337778,1,0,22.3539,4,1,0,1,0,1,227368,4,SV_73ADPjbMtd0KUBg,304,2021-10-21_16h13.08.584,implicit_time,2021.1.4,Linux x86_64,59.95563283,0,0,NA,NA,NA,NA,0,0,0
3.271,cursorjump,305,0,0,10,,0,,0,0,0.5,FALSE,practice,0,0.25,-0.322222,1,0,22.3539,4,1,0,1,0,1,227368,4,SV_73ADPjbMtd0KUBg,304,2021-10-21_16h13.08.584,implicit_time,2021.1.4,Linux x86_64,59.95563283,0,0,NA,NA,NA,NA,0,0,0
3.2877,cursorjump,305,0,0,10,,0,,0,0,0.5,FALSE,practice,0,0.225,-0.300444,1,0,22.3539,4,1,0,1,0,1,227368,4,SV_73ADPjbMtd0KUBg,304,2021-10-21_16h13.08.584,implicit_time,2021.1.4,Linux x86_64,59.95563283,0,0,NA,NA,NA,NA,0,0,0
3.3041,cursorjump,305,0,0,10,,0,,0,0,0.5,FALSE,practice,0,0.204167,-0.278667,1,0,22.3539,4,1,0,1,0,1,227368,4,SV_73ADPjbMtd0KUBg,304,2021-10-21_16h13.08.584,implicit_time,2021.1.4,Linux x86_64,59.95563283,0,0,NA,NA,NA,NA,0,0,0
3.321,cursorjump,305,0,0,10,,0,,0,0,0.5,FALSE,practice,0,0.191667,-0.266222,1,0,22.3539,4,1,0,1,0,1,227368,4,SV_73ADPjbMtd0KUBg,304,2021-10-21_16h13.08.584,implicit_time,2021.1.4,Linux x86_64,59.95563283,0,0,NA,NA,NA,NA,0,0,0
3.3375,cursorjump,305,0,0,10,,0,,0,0,0.5,FALSE,practice,0,0.166667,-0.241333,1,0,22.3539,4,1,0,1,0,1,227368,4,SV_73ADPjbMtd0KUBg,304,2021-10-21_16h13.08.584,implicit_time,2021.1.4,Linux x86_64,59.95563283,0,0,NA,NA,NA,NA,0,0,0
3.3556,cursorjump,305,0,0,10,,0,,0,0,0.5,FALSE,practice,0,0.141667,-0.216444,1,0,22.3539,4,1,0,1,0,1,227368,4,SV_73ADPjbMtd0KUBg,304,2021-10-21_16h13.08.584,implicit_time,2021.1.4,Linux x86_64,59.95563283,0,0,NA,NA,NA,NA,0,0,0
3.3713,cursorjump,305,0,0,10,,0,,0,0,0.5,FALSE,practice,0,0.1375,-0.204,1,0,22.3539,4,1,0,1,0,1,227368,4,SV_73ADPjbMtd0KUBg,304,2021-10-21_16h13.08.584,implicit_time,2021.1.4,Linux x86_64,59.95563283,0,0,NA,NA,NA,NA,0,0,0
3.3883,cursorjump,305,0,0,10,,0,,0,0,0.5,FALSE,practice,0,0.114583,-0.191556,1,0,22.3539,4,1,0,1,0,1,227368,4,SV_73ADPjbMtd0KUBg,304,2021-10-21_16h13.08.584,implicit_time,2021.1.4,Linux x86_64,59.95563283,0,0,NA,NA,NA,NA,0,0,0
3.4045,cursorjump,305,0,0,10,,0,,0,0,0.5,FALSE,practice,0,0.10625,-0.179111,1,0,22.3539,4,1,0,1,0,1,227368,4,SV_73ADPjbMtd0KUBg,304,2021-10-21_16h13.08.584,implicit_time,2021.1.4,Linux x86_64,59.95563283,0,0,NA,NA,NA,NA,0,0,0
3.4236,cursorjump,305,0,0,10,,0,,0,0,0.5,FALSE,practice,0,0.102083,-0.176,1,0,22.3539,4,1,0,1,0,1,227368,4,SV_73ADPjbMtd0KUBg,304,2021-10-21_16h13.08.584,implicit_time,2021.1.4,Linux x86_64,59.95563283,0,0,NA,NA,NA,NA,0,0,0
3.4388,cursorjump,305,0,0,10,,0,,0,0,0.5,FALSE,practice,0,0.102083,-0.172889,1,0,22.3539,4,1,0,1,0,1,227368,4,SV_73ADPjbMtd0KUBg,304,2021-10-21_16h13.08.584,implicit_time,2021.1.4,Linux x86_64,59.95563283,0,0,NA,NA,NA,NA,0,0,0
3.4561,cursorjump,305,0,0,10,,0,,0,0,0.5,FALSE,practice,0,0.104167,-0.176,1,0,22.3539,4,1,0,1,0,1,227368,4,SV_73ADPjbMtd0KUBg,304,2021-10-21_16h13.08.584,implicit_time,2021.1.4,Linux x86_64,59.95563283,0,0,NA,NA,NA,NA,0,0,0
3.4721,cursorjump,305,0,0,10,,0,,0,0,0.5,FALSE,practice,0,0.1125,-0.179111,1,0,22.3539,4,1,0,1,0,1,227368,4,SV_73ADPjbMtd0KUBg,304,2021-10-21_16h13.08.584,implicit_time,2021.1.4,Linux x86_64,59.95563283,0,0,NA,NA,NA,NA,0,0,0
3.4886,cursorjump,305,0,0,10,,0,,0,0,0.5,FALSE,practice,0,0.133333,-0.197778,1,0,22.3539,4,1,0,1,0,1,227368,4,SV_73ADPjbMtd0KUBg,304,2021-10-21_16h13.08.584,implicit_time,2021.1.4,Linux x86_64,59.95563283,0,0,NA,NA,NA,NA,0,0,0
3.5048,cursorjump,305,0,0,10,,0,,0,0,0.5,FALSE,practice,0,0.170833,-0.235111,1,0,22.3539,4,1,0,1,0,1,227368,4,SV_73ADPjbMtd0KUBg,304,2021-10-21_16h13.08.584,implicit_time,2021.1.4,Linux x86_64,59.95563283,0,0,NA,NA,NA,NA,0,0,0
3.5226,cursorjump,305,0,0,10,,0,,0,0,0.5,FALSE,practice,0,0.216667,-0.278667,1,0,22.3539,4,1,0,1,0,1,227368,4,SV_73ADPjbMtd0KUBg,304,2021-10-21_16h13.08.584,implicit_time,2021.1.4,Linux x86_64,59.95563283,0,0,NA,NA,NA,NA,0,0,0
3.5379,cursorjump,305,0,0,10,,0,,0,0,0.5,FALSE,practice,0,0.239583,-0.306667,1,0,22.3539,4,1,0,1,0,1,227368,4,SV_73ADPjbMtd0KUBg,304,2021-10-21_16h13.08.584,implicit_time,2021.1.4,Linux x86_64,59.95563283,0,0,NA,NA,NA,NA,0,0,0
3.5545,cursorjump,305,0,0,10,,0,,0,0,0.5,FALSE,practice,0,0.289583,-0.362667,1,0,22.3539,4,1,0,1,0,1,227368,4,SV_73ADPjbMtd0KUBg,304,2021-10-21_16h13.08.584,implicit_time,2021.1.4,Linux x86_64,59.95563283,0,0,NA,NA,NA,NA,0,0,0
3.5713,cursorjump,305,0,0,10,,0,,0,0,0.5,FALSE,practice,0,0.316667,-0.390667,1,0,22.3539,4,1,0,1,0,1,227368,4,SV_73ADPjbMtd0KUBg,304,2021-10-21_16h13.08.584,implicit_time,2021.1.4,Linux x86_64,59.95563283,0,0,NA,NA,NA,NA,0,0,0
3.5878,cursorjump,305,0,0,10,,0,,0,0,0.5,FALSE,practice,0,0.370833,-0.446667,1,0,22.3539,4,1,0,1,0,1,227368,4,SV_73ADPjbMtd0KUBg,304,2021-10-21_16h13.08.584,implicit_time,2021.1.4,Linux x86_64,59.95563283,0,0,NA,NA,NA,NA,0,0,0
3.6048,cursorjump,305,0,0,10,,0,,0,0,0.5,FALSE,practice,0,0.427083,-0.499556,1,0,22.3539,4,1,0,1,0,1,227368,4,SV_73ADPjbMtd0KUBg,304,2021-10-21_16h13.08.584,implicit_time,2021.1.4,Linux x86_64,59.95563283,0,0,NA,NA,NA,NA,0,0,0
3.6215,cursorjump,305,0,0,10,,0,,0,0,0.5,FALSE,practice,0,0.454167,-0.524444,1,0,22.3539,4,1,0,1,0,1,227368,4,SV_73ADPjbMtd0KUBg,304,2021-10-21_16h13.08.584,implicit_time,2021.1.4,Linux x86_64,59.95563283,0,0,NA,NA,NA,NA,0,0,0
3.6379,cursorjump,305,0,0,10,,0,,0,0,0.5,FALSE,practice,0,0.50625,-0.564889,1,0,22.3539,4,1,0,1,0,1,227368,4,SV_73ADPjbMtd0KUBg,304,2021-10-21_16h13.08.584,implicit_time,2021.1.4,Linux x86_64,59.95563283,0,0,NA,NA,NA,NA,0,0,0
3.6567,cursorjump,305,0,0,10,,0,,0,0,0.5,FALSE,practice,0,0.554167,-0.605333,1,0,22.3539,4,1,0,1,0,1,227368,4,SV_73ADPjbMtd0KUBg,304,2021-10-21_16h13.08.584,implicit_time,2021.1.4,Linux x86_64,59.95563283,0,0,NA,NA,NA,NA,0,0,0
3.6726,cursorjump,305,0,0,10,,0,,0,0,0.5,FALSE,practice,0,0.577083,-0.620889,1,0,22.3539,4,1,0,1,0,1,227368,4,SV_73ADPjbMtd0KUBg,304,2021-10-21_16h13.08.584,implicit_time,2021.1.4,Linux x86_64,59.95563283,0,0,NA,NA,NA,NA,0,0,0
3.6887,cursorjump,305,0,0,10,,0,,0,0,0.5,FALSE,practice,0,0.616667,-0.652,1,0,22.3539,4,1,0,1,0,1,227368,4,SV_73ADPjbMtd0KUBg,304,2021-10-21_16h13.08.584,implicit_time,2021.1.4,Linux x86_64,59.95563283,0,0,NA,NA,NA,NA,0,0,0
3.7052,cursorjump,305,0,0,10,,0,,0,0,0.5,FALSE,practice,0,0.654167,-0.686222,1,0,22.3539,4,1,0,1,0,1,227368,4,SV_73ADPjbMtd0KUBg,304,2021-10-21_16h13.08.584,implicit_time,2021.1.4,Linux x86_64,59.95563283,0,0,NA,NA,NA,NA,0,1,0
3.7221,cursorjump,305,0,0,10,,0,,0,0,0.5,FALSE,practice,0,0.689583,-0.717333,2,0,22.3539,4,1,0,1,0,1,227368,4,SV_73ADPjbMtd0KUBg,304,2021-10-21_16h13.08.584,implicit_time,2021.1.4,Linux x86_64,59.95563283,0,0,NA,NA,NA,NA,1,0,0
3.7411,cursorjump,305,0,0,10,,0,,0,0,0.5,FALSE,practice,0,0.70625,-0.729778,2,0,22.3539,4,1,0,1,0,1,227368,4,SV_73ADPjbMtd0KUBg,304,2021-10-21_16h13.08.584,implicit_time,2021.1.4,Linux x86_64,59.95563283,0,0,NA,NA,NA,NA,1,0,0
3.7552,cursorjump,305,0,0,10,,0,,0,0,0.5,FALSE,practice,0,0.739583,-0.754667,2,0,22.3539,4,1,0,1,0,1,227368,4,SV_73ADPjbMtd0KUBg,304,2021-10-21_16h13.08.584,implicit_time,2021.1.4,Linux x86_64,59.95563283,0,0,NA,NA,NA,NA,1,0,0
3.7718,cursorjump,305,0,0,10,,0,,0,0,0.5,FALSE,practice,0,0.75,-0.760889,2,0,22.3539,4,1,0,1,0,1,227368,4,SV_73ADPjbMtd0KUBg,304,2021-10-21_16h13.08.584,implicit_time,2021.1.4,Linux x86_64,59.95563283,0,0,NA,NA,NA,NA,1,0,0
3.7884,cursorjump,305,0,0,10,,0,,0,0,0.5,FALSE,practice,0,0.760417,-0.767111,2,0,22.3539,4,1,0,1,0,1,227368,4,SV_73ADPjbMtd0KUBg,304,2021-10-21_16h13.08.584,implicit_time,2021.1.4,Linux x86_64,59.95563283,0,0,NA,NA,NA,NA,1,0,0
3.8049,cursorjump,305,0,0,10,,0,,0,0,0.5,FALSE,practice,0,0.760417,-0.767111,2,0,22.3539,4,1,0,1,0,1,227368,4,SV_73ADPjbMtd0KUBg,304,2021-10-21_16h13.08.584,implicit_time,2021.1.4,Linux x86_64,59.95563283,0,0,NA,NA,NA,NA,1,0,0
