trialMouse.time,intrResp.keys,intrResp.rt,step,targetangle_deg,trialsType,trialsNum,trialNum,cumulativetime,trialMouse.x,trialMouse.y,trialMouse.leftButton,trialMouse.midButton,trialMouse.rightButton,trials.thisRepN,trials.thisTrialN,trials.thisN,trials.thisIndex,trials.ran,participant,date,expName,psychopyVersion,OS,frameRate,qualtrics,tasks.thisRepN,tasks.thisTrialN,tasks.thisN,tasks.thisIndex,tasks.ran,home_x,home_y,target_x,target_y,cursor_x,cursor_y,selected,max_v,movement
0.000650000059977174,r,23.24851,1,45,1,1,0,28.52908,-0.515740701363042,0.3342592543198,0,0,0,0,0,0,0,1,218716,2021-05-19_09h02.33.476,controlmir,2020.1.3,Win32,60,SV_5stERquS1sZB8qO,,,,,,0,0,NA,NA,NA,NA,1,0,0
0.0202649999409914,r,23.24851,1,45,1,1,0,28.52908,-0.515740701363042,0.3342592543198,0,0,0,0,0,0,0,1,218716,2021-05-19_09h02.33.476,controlmir,2020.1.3,Win32,60,SV_5stERquS1sZB8qO,,,,,,0,0,NA,NA,NA,NA,1,0,0
0.0336150000803173,r,23.24851,1,45,1,1,0,28.52908,-0.515740701363042,0.3342592543198,0,0,0,0,0,0,0,1,218716,2021-05-19_09h02.33.476,controlmir,2020.1.3,Win32,60,SV_5stERquS1sZB8qO,,,,,,0,0,NA,NA,NA,NA,1,0,0
0.0506100000347942,r,23.24851,1,45,1,1,0,28.52908,-0.515740701363042,0.3342592543198,0,0,0,0,0,0,0,1,218716,2021-05-19_09h02.33.476,controlmir,2020.1.3,Win32,60,SV_5stERquS1sZB8qO,,,,,,0,0,NA,NA,NA,NA,1,0,0
0.0670700001064688,r,23.24851,1,45,1,1,0,28.52908,-0.515740701363042,0.3342592543198,0,0,0,0,0,0,0,1,218716,2021-05-19_09h02.33.476,controlmir,2020.1.3,Win32,60,SV_5stERquS1sZB8qO,,,,,,0,0,NA,NA,NA,NA,1,0,0
0.0845850000623614,r,23.24851,1,45,1,1,0,28.52908,-0.515740701363042,0.3342592543198,0,0,0,0,0,0,0,1,218716,2021-05-19_09h02.33.476,controlmir,2020.1.3,Win32,60,SV_5stERquS1sZB8qO,,,,,,0,0,NA,NA,NA,NA,1,0,0
0.100735000101849,r,23.24851,1,45,1,1,0,28.52908,-0.515740701363042,0.3342592543198,0,0,0,0,0,0,0,1,218716,2021-05-19_09h02.33.476,controlmir,2020.1.3,Win32,60,SV_5stERquS1sZB8qO,,,,,,0,0,NA,NA,NA,NA,1,0,0
0.117139999987558,r,23.24851,1,45,1,1,0,28.52908,-0.515740701363042,0.3342592543198,0,0,0,0,0,0,0,1,218716,2021-05-19_09h02.33.476,controlmir,2020.1.3,Win32,60,SV_5stERquS1sZB8qO,,,,,,0,0,NA,NA,NA,NA,1,0,0
0.133910000091419,r,23.24851,1,45,1,1,0,28.52908,-0.515740701363042,0.3342592543198,0,0,0,0,0,0,0,1,218716,2021-05-19_09h02.33.476,controlmir,2020.1.3,Win32,60,SV_5stERquS1sZB8qO,,,,,,0,0,NA,NA,NA,NA,1,0,0
0.150695000076666,r,23.24851,1,45,1,1,0,28.52908,-0.515740701363042,0.3342592543198,0,0,0,0,0,0,0,1,218716,2021-05-19_09h02.33.476,controlmir,2020.1.3,Win32,60,SV_5stERquS1sZB8qO,,,,,,0,0,NA,NA,NA,NA,1,0,0
0.167214999906719,r,23.24851,1,45,1,1,0,28.52908,-0.515740701363042,0.3342592543198,0,0,0,0,0,0,0,1,218716,2021-05-19_09h02.33.476,controlmir,2020.1.3,Win32,60,SV_5stERquS1sZB8qO,,,,,,0,0,NA,NA,NA,NA,1,0,0
0.183974999934435,r,23.24851,1,45,1,1,0,28.52908,-0.515740701363042,0.3342592543198,0,0,0,0,0,0,0,1,218716,2021-05-19_09h02.33.476,controlmir,2020.1.3,Win32,60,SV_5stERquS1sZB8qO,,,,,,0,0,NA,NA,NA,NA,1,0,0
0.200514999916777,r,23.24851,1,45,1,1,0,28.52908,-0.515740701363042,0.3342592543198,0,0,0,0,0,0,0,1,218716,2021-05-19_09h02.33.476,controlmir,2020.1.3,Win32,60,SV_5stERquS1sZB8qO,,,,,,0,0,NA,NA,NA,NA,1,0,0
0.217424999922514,r,23.24851,1,45,1,1,0,28.52908,-0.515740701363042,0.3342592543198,0,0,0,0,0,0,0,1,218716,2021-05-19_09h02.33.476,controlmir,2020.1.3,Win32,60,SV_5stERquS1sZB8qO,,,,,,0,0,NA,NA,NA,NA,1,0,0
0.233895000070334,r,23.24851,1,45,1,1,0,28.52908,-0.515740701363042,0.3342592543198,0,0,0,0,0,0,0,1,218716,2021-05-19_09h02.33.476,controlmir,2020.1.3,Win32,60,SV_5stERquS1sZB8qO,,,,,,0,0,NA,NA,NA,NA,1,0,0
0.250304999994114,r,23.24851,1,45,1,1,0,28.52908,-0.515740701363042,0.3342592543198,0,0,0,0,0,0,0,1,218716,2021-05-19_09h02.33.476,controlmir,2020.1.3,Win32,60,SV_5stERquS1sZB8qO,,,,,,0,0,NA,NA,NA,NA,1,0,0
0.267950000008568,r,23.24851,1,45,1,1,0,28.52908,-0.515740701363042,0.3342592543198,0,0,0,0,0,0,0,1,218716,2021-05-19_09h02.33.476,controlmir,2020.1.3,Win32,60,SV_5stERquS1sZB8qO,,,,,,0,0,NA,NA,NA,NA,1,0,0
0.283955000108108,r,23.24851,1,45,1,1,0,28.52908,-0.515740701363042,0.3342592543198,0,0,0,0,0,0,0,1,218716,2021-05-19_09h02.33.476,controlmir,2020.1.3,Win32,60,SV_5stERquS1sZB8qO,,,,,,0,0,NA,NA,NA,NA,1,0,0
0.300449999980629,r,23.24851,1,45,1,1,0,28.52908,-0.515740701363042,0.3342592543198,0,0,0,0,0,0,0,1,218716,2021-05-19_09h02.33.476,controlmir,2020.1.3,Win32,60,SV_5stERquS1sZB8qO,,,,,,0,0,NA,NA,NA,NA,1,0,0
0.317319999914616,r,23.24851,1,45,1,1,0,28.52908,-0.515740701363042,0.3342592543198,0,0,0,0,0,0,0,1,218716,2021-05-19_09h02.33.476,controlmir,2020.1.3,Win32,60,SV_5stERquS1sZB8qO,,,,,,0,0,NA,NA,NA,NA,1,0,0
0.333834999939427,r,23.24851,1,45,1,1,0,28.52908,-0.515740701363042,0.3342592543198,0,0,0,0,0,0,0,1,218716,2021-05-19_09h02.33.476,controlmir,2020.1.3,Win32,60,SV_5stERquS1sZB8qO,,,,,,0,0,NA,NA,NA,NA,1,0,0
0.350585000123829,r,23.24851,1,45,1,1,0,28.52908,-0.515740701363042,0.3342592543198,0,0,0,0,0,0,0,1,218716,2021-05-19_09h02.33.476,controlmir,2020.1.3,Win32,60,SV_5stERquS1sZB8qO,,,,,,0,0,NA,NA,NA,NA,1,0,0
0.367265000008047,r,23.24851,1,45,1,1,0,28.52908,-0.515740701363042,0.3342592543198,0,0,0,0,0,0,0,1,218716,2021-05-19_09h02.33.476,controlmir,2020.1.3,Win32,60,SV_5stERquS1sZB8qO,,,,,,0,0,NA,NA,NA,NA,1,0,0
0.383945000125095,r,23.24851,1,45,1,1,0,28.52908,-0.515740701363042,0.3342592543198,0,0,0,0,0,0,0,1,218716,2021-05-19_09h02.33.476,controlmir,2020.1.3,Win32,60,SV_5stERquS1sZB8qO,,,,,,0,0,NA,NA,NA,NA,1,0,0
0.400480000069365,r,23.24851,1,45,1,1,0,28.52908,-0.515740701363042,0.3342592543198,0,0,0,0,0,0,0,1,218716,2021-05-19_09h02.33.476,controlmir,2020.1.3,Win32,60,SV_5stERquS1sZB8qO,,,,,,0,0,NA,NA,NA,NA,1,0,1
0.417230000020936,r,23.24851,1,45,1,1,0,28.52908,-0.515740701363042,0.3342592543198,0,0,0,0,0,0,0,1,218716,2021-05-19_09h02.33.476,controlmir,2020.1.3,Win32,60,SV_5stERquS1sZB8qO,,,,,,0,0,NA,NA,NA,NA,1,0,1
0.433780000079423,r,23.24851,1,45,1,1,0,28.52908,-0.515740701363042,0.3342592543198,0,0,0,0,0,0,0,1,218716,2021-05-19_09h02.33.476,controlmir,2020.1.3,Win32,60,SV_5stERquS1sZB8qO,,,,,,0,0,NA,NA,NA,NA,1,0,1
0.45094499993138,r,23.24851,1,45,1,1,0,28.52908,-0.515740701363042,0.3342592543198,0,0,0,0,0,0,0,1,218716,2021-05-19_09h02.33.476,controlmir,2020.1.3,Win32,60,SV_5stERquS1sZB8qO,,,,,,0,0,NA,NA,NA,NA,1,0,1
0.467260000063106,r,23.24851,1,45,1,1,0,28.52908,-0.515740701363042,0.3342592543198,0,0,0,0,0,0,0,1,218716,2021-05-19_09h02.33.476,controlmir,2020.1.3,Win32,60,SV_5stERquS1sZB8qO,,,,,,0,0,NA,NA,NA,NA,1,0,1
0.483805000083521,r,23.24851,1,45,1,1,0,28.52908,-0.515740701363042,0.3342592543198,0,0,0,0,0,0,0,1,218716,2021-05-19_09h02.33.476,controlmir,2020.1.3,Win32,60,SV_5stERquS1sZB8qO,,,,,,0,0,NA,NA,NA,NA,1,0,1
0.500410000095144,r,23.24851,1,45,1,1,0,28.52908,-0.515740701363042,0.3342592543198,0,0,0,0,0,0,0,1,218716,2021-05-19_09h02.33.476,controlmir,2020.1.3,Win32,60,SV_5stERquS1sZB8qO,,,,,,0,0,NA,NA,NA,NA,1,0,1
0.517040000064299,r,23.24851,1,45,1,1,0,28.52908,-0.515740701363042,0.3342592543198,0,0,0,0,0,0,0,1,218716,2021-05-19_09h02.33.476,controlmir,2020.1.3,Win32,60,SV_5stERquS1sZB8qO,,,,,,0,0,NA,NA,NA,NA,1,0,1
0.533770000096411,r,23.24851,1,45,1,1,0,28.52908,-0.515740701363042,0.3342592543198,0,0,0,0,0,0,0,1,218716,2021-05-19_09h02.33.476,controlmir,2020.1.3,Win32,60,SV_5stERquS1sZB8qO,,,,,,0,0,NA,NA,NA,NA,1,0,1
0.550335000036284,r,23.24851,1,45,1,1,0,28.52908,-0.515740701363042,0.3342592543198,0,0,0,0,0,0,0,1,218716,2021-05-19_09h02.33.476,controlmir,2020.1.3,Win32,60,SV_5stERquS1sZB8qO,,,,,,0,0,NA,NA,NA,NA,1,0,1
0.567074999911711,r,23.24851,1,45,1,1,0,28.52908,-0.515740701363042,0.3342592543198,0,0,0,0,0,0,0,1,218716,2021-05-19_09h02.33.476,controlmir,2020.1.3,Win32,60,SV_5stERquS1sZB8qO,,,,,,0,0,NA,NA,NA,NA,1,0,1
0.583769999910146,r,23.24851,1,45,1,1,0,28.52908,-0.515740701363042,0.3342592543198,0,0,0,0,0,0,0,1,218716,2021-05-19_09h02.33.476,controlmir,2020.1.3,Win32,60,SV_5stERquS1sZB8qO,,,,,,0,0,NA,NA,NA,NA,1,0,1
0.600520000094548,r,23.24851,1,45,1,1,0,28.52908,-0.515740701363042,0.3342592543198,0,0,0,0,0,0,0,1,218716,2021-05-19_09h02.33.476,controlmir,2020.1.3,Win32,60,SV_5stERquS1sZB8qO,,,,,,0,0,NA,NA,NA,NA,1,0,1
0.617044999962673,r,23.24851,1,45,1,1,0,28.52908,-0.515740701363042,0.3342592543198,0,0,0,0,0,0,0,1,218716,2021-05-19_09h02.33.476,controlmir,2020.1.3,Win32,60,SV_5stERquS1sZB8qO,,,,,,0,0,NA,NA,NA,NA,1,0,1
0.634164999937639,r,23.24851,1,45,1,1,0,28.52908,-0.515740701363042,0.3342592543198,0,0,0,0,0,0,0,1,218716,2021-05-19_09h02.33.476,controlmir,2020.1.3,Win32,60,SV_5stERquS1sZB8qO,,,,,,0,0,NA,NA,NA,NA,1,0,1
0.650330000091344,r,23.24851,1,45,1,1,0,28.52908,-0.515740701363042,0.3342592543198,0,0,0,0,0,0,0,1,218716,2021-05-19_09h02.33.476,controlmir,2020.1.3,Win32,60,SV_5stERquS1sZB8qO,,,,,,0,0,NA,NA,NA,NA,1,0,1
0.667045000009239,r,23.24851,1,45,1,1,0,28.52908,-0.515740701363042,0.3342592543198,0,0,0,0,0,0,0,1,218716,2021-05-19_09h02.33.476,controlmir,2020.1.3,Win32,60,SV_5stERquS1sZB8qO,,,,,,0,0,NA,NA,NA,NA,1,0,1
0.683849999913946,r,23.24851,1,45,1,1,0,28.52908,-0.515740701363042,0.3342592543198,0,0,0,0,0,0,0,1,218716,2021-05-19_09h02.33.476,controlmir,2020.1.3,Win32,60,SV_5stERquS1sZB8qO,,,,,,0,0,NA,NA,NA,NA,1,0,1
0.700205000117421,r,23.24851,1,45,1,1,0,28.52908,-0.515740701363042,0.3342592543198,0,0,0,0,0,0,0,1,218716,2021-05-19_09h02.33.476,controlmir,2020.1.3,Win32,60,SV_5stERquS1sZB8qO,,,,,,0,0,NA,NA,NA,NA,1,1,1
0.716990000102669,r,23.24851,1,45,1,1,0,28.52908,-0.515740701363042,0.3342592543198,0,0,0,0,0,0,0,1,218716,2021-05-19_09h02.33.476,controlmir,2020.1.3,Win32,60,SV_5stERquS1sZB8qO,,,,,,0,0,NA,NA,NA,NA,1,0,1
0.733555000042543,r,23.24851,1,45,1,1,0,28.52908,-0.515740701363042,0.3342592543198,0,0,0,0,0,0,0,1,218716,2021-05-19_09h02.33.476,controlmir,2020.1.3,Win32,60,SV_5stERquS1sZB8qO,,,,,,0,0,NA,NA,NA,NA,1,0,1
0.750179999973625,r,23.24851,1,45,1,1,0,28.52908,-0.515740701363042,0.3342592543198,0,0,0,0,0,0,0,1,218716,2021-05-19_09h02.33.476,controlmir,2020.1.3,Win32,60,SV_5stERquS1sZB8qO,,,,,,0,0,NA,NA,NA,NA,1,0,1
0.766839999938384,r,23.24851,1,45,1,1,0,28.52908,-0.515740701363042,0.3342592543198,0,0,0,0,0,0,0,1,218716,2021-05-19_09h02.33.476,controlmir,2020.1.3,Win32,60,SV_5stERquS1sZB8qO,,,,,,0,0,NA,NA,NA,NA,1,0,1
0.783539999974892,r,23.24851,1,45,1,1,0,28.52908,-0.515740701363042,0.3342592543198,0,0,0,0,0,0,0,1,218716,2021-05-19_09h02.33.476,controlmir,2020.1.3,Win32,60,SV_5stERquS1sZB8qO,,,,,,0,0,NA,NA,NA,NA,1,0,1
0.799954999936745,r,23.24851,1,45,1,1,0,28.52908,-0.515740701363042,0.3342592543198,0,0,0,0,0,0,0,1,218716,2021-05-19_09h02.33.476,controlmir,2020.1.3,Win32,60,SV_5stERquS1sZB8qO,,,,,,0,0,NA,NA,NA,NA,1,0,1
0.817319999914616,r,23.24851,1,45,1,1,0,28.52908,-0.515740701363042,0.3342592543198,0,0,0,0,0,0,0,1,218716,2021-05-19_09h02.33.476,controlmir,2020.1.3,Win32,60,SV_5stERquS1sZB8qO,,,,,,0,0,NA,NA,NA,NA,1,0,1
0.833564999978989,r,23.24851,1,45,1,1,0,28.52908,-0.515740701363042,0.3342592543198,0,0,0,0,0,0,0,1,218716,2021-05-19_09h02.33.476,controlmir,2020.1.3,Win32,60,SV_5stERquS1sZB8qO,,,,,,0,0,NA,NA,NA,NA,1,0,0
0.85018500010483,r,23.24851,1,45,1,1,0,28.52908,-0.515740701363042,0.3342592543198,0,0,0,0,0,0,0,1,218716,2021-05-19_09h02.33.476,controlmir,2020.1.3,Win32,60,SV_5stERquS1sZB8qO,,,,,,0,0,NA,NA,NA,NA,1,0,0
0.867654999950901,r,23.24851,1,45,1,1,0,28.52908,-0.515740701363042,0.3342592543198,0,0,0,0,0,0,0,1,218716,2021-05-19_09h02.33.476,controlmir,2020.1.3,Win32,60,SV_5stERquS1sZB8qO,,,,,,0,0,NA,NA,NA,NA,1,0,0
0.883445000043139,r,23.24851,1,45,1,1,0,28.52908,-0.515740701363042,0.3342592543198,0,0,0,0,0,0,0,1,218716,2021-05-19_09h02.33.476,controlmir,2020.1.3,Win32,60,SV_5stERquS1sZB8qO,,,,,,0,0,NA,NA,NA,NA,1,0,0
0.900734999915585,r,23.24851,1,45,1,1,0,28.52908,-0.515740701363042,0.3342592543198,0,0,0,0,0,0,0,1,218716,2021-05-19_09h02.33.476,controlmir,2020.1.3,Win32,60,SV_5stERquS1sZB8qO,,,,,,0,0,NA,NA,NA,NA,1,0,0
0.916660000104457,r,23.24851,1,45,1,1,0,28.52908,-0.515740701363042,0.3342592543198,0,0,0,0,0,0,0,1,218716,2021-05-19_09h02.33.476,controlmir,2020.1.3,Win32,60,SV_5stERquS1sZB8qO,,,,,,0,0,NA,NA,NA,NA,1,0,0
0.93324499996379,r,23.24851,1,45,1,1,0,28.52908,-0.515740701363042,0.3342592543198,0,0,0,0,0,0,0,1,218716,2021-05-19_09h02.33.476,controlmir,2020.1.3,Win32,60,SV_5stERquS1sZB8qO,,,,,,0,0,NA,NA,NA,NA,1,0,0
0.950179999927059,r,23.24851,1,45,1,1,0,28.52908,-0.515740701363042,0.3342592543198,0,0,0,0,0,0,0,1,218716,2021-05-19_09h02.33.476,controlmir,2020.1.3,Win32,60,SV_5stERquS1sZB8qO,,,,,,0,0,NA,NA,NA,NA,1,0,0
0.967010000022128,r,23.24851,1,45,1,1,0,28.52908,-0.515740701363042,0.3342592543198,0,0,0,0,0,0,0,1,218716,2021-05-19_09h02.33.476,controlmir,2020.1.3,Win32,60,SV_5stERquS1sZB8qO,,,,,,0,0,NA,NA,NA,NA,1,0,0
0.983539999928325,r,23.24851,1,45,1,1,0,28.52908,-0.515740701363042,0.3342592543198,0,0,0,0,0,0,0,1,218716,2021-05-19_09h02.33.476,controlmir,2020.1.3,Win32,60,SV_5stERquS1sZB8qO,,,,,,0,0,NA,NA,NA,NA,1,0,0
1.00051499996334,r,23.24851,1,45,1,1,0,28.52908,-0.515740701363042,0.3342592543198,0,0,0,0,0,0,0,1,218716,2021-05-19_09h02.33.476,controlmir,2020.1.3,Win32,60,SV_5stERquS1sZB8qO,,,,,,0,0,NA,NA,NA,NA,1,0,0
1.01683499990031,r,23.24851,1,45,1,1,0,28.52908,-0.515740701363042,0.3342592543198,0,0,0,0,0,0,0,1,218716,2021-05-19_09h02.33.476,controlmir,2020.1.3,Win32,60,SV_5stERquS1sZB8qO,,,,,,0,0,NA,NA,NA,NA,1,0,0
1.03393499995582,r,23.24851,1,45,1,1,0,28.52908,-0.515740701363042,0.3342592543198,0,0,0,0,0,0,0,1,218716,2021-05-19_09h02.33.476,controlmir,2020.1.3,Win32,60,SV_5stERquS1sZB8qO,,,,,,0,0,NA,NA,NA,NA,1,0,0
1.0502100000158,r,23.24851,1,45,1,1,0,28.52908,-0.515740701363042,0.3342592543198,0,0,0,0,0,0,0,1,218716,2021-05-19_09h02.33.476,controlmir,2020.1.3,Win32,60,SV_5stERquS1sZB8qO,,,,,,0,0,NA,NA,NA,NA,1,0,0
1.06697000004351,r,23.24851,1,45,1,1,0,28.52908,-0.515740701363042,0.3342592543198,0,0,0,0,0,0,0,1,218716,2021-05-19_09h02.33.476,controlmir,2020.1.3,Win32,60,SV_5stERquS1sZB8qO,,,,,,0,0,NA,NA,NA,NA,1,0,0
1.08393500000238,r,23.24851,1,45,1,1,0,28.52908,-0.515740701363042,0.3342592543198,0,0,0,0,0,0,0,1,218716,2021-05-19_09h02.33.476,controlmir,2020.1.3,Win32,60,SV_5stERquS1sZB8qO,,,,,,0,0,NA,NA,NA,NA,1,0,0
1.10009500011802,r,23.24851,1,45,1,1,0,28.52908,-0.515740701363042,0.3342592543198,0,0,0,0,0,0,0,1,218716,2021-05-19_09h02.33.476,controlmir,2020.1.3,Win32,60,SV_5stERquS1sZB8qO,,,,,,0,0,NA,NA,NA,NA,1,0,0
1.11681500007398,r,23.24851,1,45,1,1,0,28.52908,-0.515740701363042,0.3342592543198,0,0,0,0,0,0,0,1,218716,2021-05-19_09h02.33.476,controlmir,2020.1.3,Win32,60,SV_5stERquS1sZB8qO,,,,,,0,0,NA,NA,NA,NA,1,0,0
1.13391000009142,r,23.24851,1,45,1,1,0,28.52908,-0.515740701363042,0.3342592543198,0,0,0,0,0,0,0,1,218716,2021-05-19_09h02.33.476,controlmir,2020.1.3,Win32,60,SV_5stERquS1sZB8qO,,,,,,0,0,NA,NA,NA,NA,1,0,0
1.15022499999031,r,23.24851,1,45,1,1,0,28.52908,-0.515740701363042,0.3342592543198,0,0,0,0,0,0,0,1,218716,2021-05-19_09h02.33.476,controlmir,2020.1.3,Win32,60,SV_5stERquS1sZB8qO,,,,,,0,0,NA,NA,NA,NA,1,0,0
1.16696500009857,r,23.24851,1,45,1,1,0,28.52908,-0.515740701363042,0.3342592543198,0,0,0,0,0,0,0,1,218716,2021-05-19_09h02.33.476,controlmir,2020.1.3,Win32,60,SV_5stERquS1sZB8qO,,,,,,0,0,NA,NA,NA,NA,1,0,0
1.18445000005886,r,23.24851,1,45,1,1,0,28.52908,-0.499999988410208,0.337037032180362,0,0,0,0,0,0,0,1,218716,2021-05-19_09h02.33.476,controlmir,2020.1.3,Win32,60,SV_5stERquS1sZB8qO,,,,,,0,0,NA,NA,NA,NA,1,0,0
1.2014949999284,r,23.24851,1,45,1,1,0,28.52908,-0.424074031964495,0.34814814362261,0,0,0,0,0,0,0,1,218716,2021-05-19_09h02.33.476,controlmir,2020.1.3,Win32,60,SV_5stERquS1sZB8qO,,,,,,0,0,NA,NA,NA,NA,1,0,0
1.2173850000836,r,23.24851,1,45,1,1,0,28.52908,-0.356481465614504,0.355555551250776,0,0,0,0,0,0,0,1,218716,2021-05-19_09h02.33.476,controlmir,2020.1.3,Win32,60,SV_5stERquS1sZB8qO,,,,,,0,0,NA,NA,NA,NA,1,0,0
1.23427999997512,r,23.24851,1,45,1,1,0,28.52908,-0.291666648868058,0.365740736739503,0,0,0,0,0,0,0,1,218716,2021-05-19_09h02.33.476,controlmir,2020.1.3,Win32,60,SV_5stERquS1sZB8qO,,,,,,0,0,NA,NA,NA,NA,1,0,0
1.25022500008345,r,23.24851,1,45,1,1,0,28.52908,-0.241666647377941,0.380555551995834,0,0,0,0,0,0,0,1,218716,2021-05-19_09h02.33.476,controlmir,2020.1.3,Win32,60,SV_5stERquS1sZB8qO,,,,,,0,0,NA,NA,NA,NA,1,0,0
1.26659499993548,r,23.24851,1,45,1,1,0,28.52908,-0.208333313051197,0.393518508280869,0,0,0,0,0,0,0,1,218716,2021-05-19_09h02.33.476,controlmir,2020.1.3,Win32,60,SV_5stERquS1sZB8qO,,,,,,0,0,NA,NA,NA,NA,1,0,0
1.2838950001169,r,23.24851,1,45,1,1,0,28.52908,-0.185185164213181,0.401851841862555,0,0,0,0,0,0,0,1,218716,2021-05-19_09h02.33.476,controlmir,2020.1.3,Win32,60,SV_5stERquS1sZB8qO,,,,,,0,0,NA,NA,NA,NA,1,0,0
1.30034999991767,r,23.24851,1,45,1,1,0,28.52908,-0.175925848163939,0.403703700833851,0,0,0,0,0,0,0,1,218716,2021-05-19_09h02.33.476,controlmir,2020.1.3,Win32,60,SV_5stERquS1sZB8qO,,,,,,0,0,NA,NA,NA,NA,1,0,0
1.3171250000596,r,23.24851,1,45,1,1,0,28.52908,-0.174074052770933,0.404629619723117,0,0,0,0,0,0,0,1,218716,2021-05-19_09h02.33.476,controlmir,2020.1.3,Win32,60,SV_5stERquS1sZB8qO,,,,,,0,0,NA,NA,NA,NA,1,0,0
1.33334000012837,r,23.24851,1,45,1,1,0,28.52908,-0.174074052770933,0.404629619723117,0,0,0,0,0,0,0,1,218716,2021-05-19_09h02.33.476,controlmir,2020.1.3,Win32,60,SV_5stERquS1sZB8qO,,,,,,0,0,NA,NA,NA,NA,1,0,0
1.34991499991156,r,23.24851,1,45,1,1,0,28.52908,-0.174074052770933,0.404629619723117,0,0,0,0,0,0,0,1,218716,2021-05-19_09h02.33.476,controlmir,2020.1.3,Win32,60,SV_5stERquS1sZB8qO,,,,,,0,0,NA,NA,NA,NA,1,0,0
1.36729500000365,r,23.24851,1,45,1,1,0,28.52908,-0.174999978724453,0.399074064001993,0,0,0,0,0,0,0,1,218716,2021-05-19_09h02.33.476,controlmir,2020.1.3,Win32,60,SV_5stERquS1sZB8qO,,,,,,0,0,NA,NA,NA,NA,1,0,0
1.38379999995232,r,23.24851,1,45,1,1,0,28.52908,-0.191666645887825,0.385185174699183,0,0,0,0,0,0,0,1,218716,2021-05-19_09h02.33.476,controlmir,2020.1.3,Win32,60,SV_5stERquS1sZB8qO,,,,,,0,0,NA,NA,NA,NA,1,0,0
1.40159999998286,r,23.24851,1,45,1,1,0,28.52908,-0.213888868772321,0.371296292460627,0,0,0,0,0,0,0,1,218716,2021-05-19_09h02.33.476,controlmir,2020.1.3,Win32,60,SV_5stERquS1sZB8qO,,,,,,0,0,NA,NA,NA,NA,1,0,0
1.41850499995053,r,23.24851,1,45,1,1,0,28.52908,-0.234259239749776,0.34722221766909,0,0,0,0,0,0,0,1,218716,2021-05-19_09h02.33.476,controlmir,2020.1.3,Win32,60,SV_5stERquS1sZB8qO,,,,,,0,0,NA,NA,NA,NA,1,0,0
1.43542500003241,r,23.24851,1,45,1,1,0,28.52908,-0.249074055006107,0.321296290970511,0,0,0,0,0,0,0,1,218716,2021-05-19_09h02.33.476,controlmir,2020.1.3,Win32,60,SV_5stERquS1sZB8qO,,,,,,0,0,NA,NA,NA,NA,1,0,0
1.45198000012897,r,23.24851,1,45,1,1,0,28.52908,-0.257407388587793,0.304629623807139,0,0,0,0,0,0,0,1,218716,2021-05-19_09h02.33.476,controlmir,2020.1.3,Win32,60,SV_5stERquS1sZB8qO,,,,,,0,0,NA,NA,NA,NA,1,0,0
1.46845000004396,r,23.24851,1,45,1,1,0,28.52908,-0.259259240494834,0.299999994039536,0,0,0,0,0,0,0,1,218716,2021-05-19_09h02.33.476,controlmir,2020.1.3,Win32,60,SV_5stERquS1sZB8qO,,,,,,0,0,NA,NA,NA,NA,1,0,0
1.48633500002325,r,23.24851,1,45,1,1,0,28.52908,-0.260185166448355,0.295370350143423,0,0,0,0,0,0,0,1,218716,2021-05-19_09h02.33.476,controlmir,2020.1.3,Win32,60,SV_5stERquS1sZB8qO,,,,,,0,0,NA,NA,NA,NA,1,0,0
1.50219999998808,r,23.24851,1,45,1,1,0,28.52908,-0.258333314541313,0.282407400922643,0,0,0,0,0,0,0,1,218716,2021-05-19_09h02.33.476,controlmir,2020.1.3,Win32,60,SV_5stERquS1sZB8qO,,,,,,0,0,NA,NA,NA,NA,1,0,0
1.51948500005528,r,23.24851,1,45,1,1,0,28.52908,-0.250925906913148,0.269444437573354,0,0,0,0,0,0,0,1,218716,2021-05-19_09h02.33.476,controlmir,2020.1.3,Win32,60,SV_5stERquS1sZB8qO,,,,,,0,0,NA,NA,NA,NA,1,0,0
1.53551500011235,r,23.24851,1,45,1,1,0,28.52908,-0.245370351192024,0.258333326131105,0,0,0,0,0,0,0,1,218716,2021-05-19_09h02.33.476,controlmir,2020.1.3,Win32,60,SV_5stERquS1sZB8qO,,,,,,0,0,NA,NA,NA,NA,1,0,0
1.55318500008434,r,23.24851,1,45,1,1,0,28.52908,-0.2398147954709,0.23703702920013,0,0,0,0,0,0,0,1,218716,2021-05-19_09h02.33.476,controlmir,2020.1.3,Win32,60,SV_5stERquS1sZB8qO,,,,,,0,0,NA,NA,NA,NA,1,0,0
1.5688599999994,r,23.24851,1,45,1,1,0,28.52908,-0.218518498539925,0.192592583431138,0,0,0,0,0,0,0,1,218716,2021-05-19_09h02.33.476,controlmir,2020.1.3,Win32,60,SV_5stERquS1sZB8qO,,,,,,0,0,NA,NA,NA,NA,1,0,0
1.58536499994807,r,23.24851,1,45,1,1,0,28.52908,-0.201851831376553,0.159259249104394,0,0,0,0,0,0,0,1,218716,2021-05-19_09h02.33.476,controlmir,2020.1.3,Win32,60,SV_5stERquS1sZB8qO,,,,,,0,0,NA,NA,NA,NA,1,0,0
1.60211499989964,r,23.24851,1,45,1,1,0,28.52908,-0.187962942073743,0.126851812474153,0,0,0,0,0,0,0,1,218716,2021-05-19_09h02.33.476,controlmir,2020.1.3,Win32,60,SV_5stERquS1sZB8qO,,,,,,0,0,NA,NA,NA,NA,1,0,0
1.61900499998592,r,23.24851,1,45,1,1,0,28.52908,-0.174999978724453,0.100925914032592,0,0,0,0,0,0,0,1,218716,2021-05-19_09h02.33.476,controlmir,2020.1.3,Win32,60,SV_5stERquS1sZB8qO,,,,,,0,0,NA,NA,NA,NA,1,0,0
1.63547000009567,r,23.24851,1,45,1,1,0,28.52908,-0.169444423003329,0.083333320915699,0,0,0,0,0,0,0,1,218716,2021-05-19_09h02.33.476,controlmir,2020.1.3,Win32,60,SV_5stERquS1sZB8qO,,,,,,0,0,NA,NA,NA,NA,1,0,0
1.6519500000868,r,23.24851,1,45,1,1,0,28.52908,-0.162962941328685,0.0703703575664096,0,0,0,0,0,0,0,1,218716,2021-05-19_09h02.33.476,controlmir,2020.1.3,Win32,60,SV_5stERquS1sZB8qO,,,,,,0,0,NA,NA,NA,NA,1,0,0
1.66902999999002,r,23.24851,1,45,1,1,0,28.52908,-0.155555533700519,0.0490740323784166,0,0,0,0,0,0,0,1,218716,2021-05-19_09h02.33.476,controlmir,2020.1.3,Win32,60,SV_5stERquS1sZB8qO,,,,,,0,0,NA,NA,NA,NA,1,0,0
1.68566499999724,r,23.24851,1,45,1,1,0,28.52908,-0.148148069558319,0.0296295873544826,0,0,0,0,0,0,0,1,218716,2021-05-19_09h02.33.476,controlmir,2020.1.3,Win32,60,SV_5stERquS1sZB8qO,,,,,,0,0,NA,NA,NA,NA,1,0,0
1.70164499990642,r,23.24851,1,45,1,1,0,28.52908,-0.144444422258271,0.0120370224946075,0,0,0,0,0,0,0,1,218716,2021-05-19_09h02.33.476,controlmir,2020.1.3,Win32,60,SV_5stERquS1sZB8qO,,,,,,0,0,NA,NA,NA,NA,1,0,0
1.71865499997512,r,23.24851,1,45,1,1,0,28.52908,-0.141666644397709,-1.49011611938477e-08,0,0,0,0,0,0,0,1,218716,2021-05-19_09h02.33.476,controlmir,2020.1.3,Win32,60,SV_5stERquS1sZB8qO,,,,,,0,0,NA,NA,NA,NA,1,0,0
1.73540000012144,r,23.24851,1,45,1,1,0,28.52908,-0.137962940583626,-0.00925927443636788,0,0,0,0,0,0,0,1,218716,2021-05-19_09h02.33.476,controlmir,2020.1.3,Win32,60,SV_5stERquS1sZB8qO,,,,,,0,0,NA,NA,NA,NA,1,0,0
1.75214500003494,r,23.24851,1,45,1,1,0,28.52908,-0.135185162723064,-0.0138889042039712,0,0,0,0,0,0,0,1,218716,2021-05-19_09h02.33.476,controlmir,2020.1.3,Win32,60,SV_5stERquS1sZB8qO,,,,,,0,0,NA,NA,NA,NA,1,0,0
1.76959999999963,r,23.24851,1,45,1,1,0,28.52908,-0.130555532955461,-0.0203703858786159,0,0,0,0,0,0,0,1,218716,2021-05-19_09h02.33.476,controlmir,2020.1.3,Win32,60,SV_5stERquS1sZB8qO,,,,,,0,0,NA,NA,NA,NA,1,0,0
1.78561499994248,r,23.24851,1,45,1,1,0,28.52908,-0.114814735231574,-0.0351852011349466,0,0,0,0,0,0,0,1,218716,2021-05-19_09h02.33.476,controlmir,2020.1.3,Win32,60,SV_5stERquS1sZB8qO,,,,,,0,0,NA,NA,NA,NA,1,0,0
1.801870000083,r,23.24851,1,45,1,1,0,28.52908,-0.099999976489279,-0.0462963125771946,0,0,0,0,0,0,0,1,218716,2021-05-19_09h02.33.476,controlmir,2020.1.3,Win32,60,SV_5stERquS1sZB8qO,,,,,,0,0,NA,NA,NA,NA,1,0,0
1.81888999999501,r,23.24851,1,45,1,1,0,28.52908,-0.091666642907593,-0.0518518682983187,0,0,0,0,0,0,0,1,218716,2021-05-19_09h02.33.476,controlmir,2020.1.3,Win32,60,SV_5stERquS1sZB8qO,,,,,,0,0,NA,NA,NA,NA,1,0,0
1.83493499993347,r,23.24851,1,45,1,1,0,28.52908,-0.0898147344865164,-0.05370372020536,0,0,0,0,0,0,0,1,218716,2021-05-19_09h02.33.476,controlmir,2020.1.3,Win32,60,SV_5stERquS1sZB8qO,,,,,,0,0,NA,NA,NA,NA,1,0,0
1.85291499993764,r,23.24851,1,45,1,1,0,28.52908,-0.0870369566259544,-0.0546296461588807,0,0,0,0,0,0,0,1,218716,2021-05-19_09h02.33.476,controlmir,2020.1.3,Win32,60,SV_5stERquS1sZB8qO,,,,,,0,0,NA,NA,NA,NA,1,0,0
1.86865000007674,r,23.24851,1,45,1,1,0,28.52908,-0.086111087186469,-0.0546296461588807,0,0,0,0,0,0,0,1,218716,2021-05-19_09h02.33.476,controlmir,2020.1.3,Win32,60,SV_5stERquS1sZB8qO,,,,,,0,0,NA,NA,NA,NA,1,0,0
1.88521500001661,r,23.24851,1,45,1,1,0,28.52908,-0.077777753604783,-0.056481498065922,0,0,0,0,0,0,0,1,218716,2021-05-19_09h02.33.476,controlmir,2020.1.3,Win32,60,SV_5stERquS1sZB8qO,,,,,,0,0,NA,NA,NA,NA,1,0,0
1.90280500007793,r,23.24851,1,45,1,1,0,28.52908,-0.0712962719301383,-0.0574074240194427,0,0,0,0,0,0,0,1,218716,2021-05-19_09h02.33.476,controlmir,2020.1.3,Win32,60,SV_5stERquS1sZB8qO,,,,,,0,0,NA,NA,NA,NA,1,0,0
1.91938999993727,r,23.24851,1,45,1,1,0,28.52908,-0.0657407162090143,-0.0574074240194427,0,0,0,0,0,0,0,1,218716,2021-05-19_09h02.33.476,controlmir,2020.1.3,Win32,60,SV_5stERquS1sZB8qO,,,,,,0,0,NA,NA,NA,NA,1,0,0
1.93549999990501,r,23.24851,1,45,1,1,0,28.52908,-0.0611110864414109,-0.0574074240194427,0,0,0,0,0,0,0,1,218716,2021-05-19_09h02.33.476,controlmir,2020.1.3,Win32,60,SV_5stERquS1sZB8qO,,,,,,0,0,NA,NA,NA,NA,1,0,0
1.95294500002638,r,23.24851,1,45,1,1,0,28.52908,-0.0583333085808489,-0.0574074240194427,0,0,0,0,0,0,0,1,218716,2021-05-19_09h02.33.476,controlmir,2020.1.3,Win32,60,SV_5stERquS1sZB8qO,,,,,,0,0,NA,NA,NA,NA,1,0,0
1.96833000006154,r,23.24851,1,45,1,1,0,28.52908,-0.0555555307202869,-0.056481498065922,0,0,0,0,0,0,0,1,218716,2021-05-19_09h02.33.476,controlmir,2020.1.3,Win32,60,SV_5stERquS1sZB8qO,,,,,,0,0,NA,NA,NA,NA,1,0,0
1.98607499990612,r,23.24851,1,45,1,1,0,28.52908,-0.0546296047667662,-0.0546296461588807,0,0,0,0,0,0,0,1,218716,2021-05-19_09h02.33.476,controlmir,2020.1.3,Win32,60,SV_5stERquS1sZB8qO,,,,,,0,0,NA,NA,NA,NA,1,0,0
2.00377000006847,r,23.24851,1,45,1,1,0,28.52908,-0.0518518269062042,-0.0527777942518393,0,0,0,0,0,0,0,1,218716,2021-05-19_09h02.33.476,controlmir,2020.1.3,Win32,60,SV_5stERquS1sZB8qO,,,,,,0,0,NA,NA,NA,NA,1,0,0
2.01873499993235,r,23.24851,1,45,1,1,0,28.52908,-0.0518518269062042,-0.0518518682983187,0,0,0,0,0,0,0,1,218716,2021-05-19_09h02.33.476,controlmir,2020.1.3,Win32,60,SV_5stERquS1sZB8qO,,,,,,0,0,NA,NA,NA,NA,1,0,0
2.03508000005968,r,23.24851,1,45,1,1,0,28.52908,-0.0490740490456422,-0.0490740904377566,0,0,0,0,0,0,0,1,218716,2021-05-19_09h02.33.476,controlmir,2020.1.3,Win32,60,SV_5stERquS1sZB8qO,,,,,,0,0,NA,NA,NA,NA,1,0,0
2.05361000006087,r,23.24851,1,45,1,1,0,28.52908,-0.0472221971386009,-0.0462963125771946,0,0,0,0,0,0,0,1,218716,2021-05-19_09h02.33.476,controlmir,2020.1.3,Win32,60,SV_5stERquS1sZB8qO,,,,,,0,0,NA,NA,NA,NA,1,0,0
2.07213500002399,r,23.24851,1,45,1,1,0,28.52908,-0.0444444192780389,-0.042592608763112,0,0,0,0,0,0,0,1,218716,2021-05-19_09h02.33.476,controlmir,2020.1.3,Win32,60,SV_5stERquS1sZB8qO,,,,,,0,0,NA,NA,NA,NA,1,0,0
2.10787499998696,r,23.24851,1,45,1,1,0,28.52908,-0.0324073818822702,-0.0287037194603019,0,0,0,0,0,0,0,1,218716,2021-05-19_09h02.33.476,controlmir,2020.1.3,Win32,60,SV_5stERquS1sZB8qO,,,,,,0,0,NA,NA,NA,NA,1,0,0
2.12362500000745,r,23.24851,1,45,1,1,0,28.52908,-0.0249999742541048,-0.0240740896926986,0,0,0,0,0,0,0,1,218716,2021-05-19_09h02.33.476,controlmir,2020.1.3,Win32,60,SV_5stERquS1sZB8qO,,,,,,0,0,NA,NA,NA,NA,1,0,0
2.15528000006452,r,23.24851,2,45,1,1,0,28.52908,-0.0148147322513422,-0.0175926080180539,0,0,0,0,0,0,0,1,218716,2021-05-19_09h02.33.476,controlmir,2020.1.3,Win32,60,SV_5stERquS1sZB8qO,,,,,,0,0,NA,NA,NA,NA,1,0,0
2.21171499998309,r,23.24851,2,45,1,1,0,28.52908,-0.0101851589977741,-0.0101852003898886,0,0,0,0,0,0,0,1,218716,2021-05-19_09h02.33.476,controlmir,2020.1.3,Win32,60,SV_5stERquS1sZB8qO,,,,,,0,0,NA,NA,NA,NA,1,0,0
2.21989500010386,r,23.24851,2,45,1,1,0,28.52908,-0.0101851589977741,-0.0101852003898886,0,0,0,0,0,0,0,1,218716,2021-05-19_09h02.33.476,controlmir,2020.1.3,Win32,60,SV_5stERquS1sZB8qO,,,,,,0,0,NA,NA,NA,NA,1,0,0
2.23288000002503,r,23.24851,2,45,1,1,0,28.52908,-0.0101851589977741,-0.0101852003898886,0,0,0,0,0,0,0,1,218716,2021-05-19_09h02.33.476,controlmir,2020.1.3,Win32,60,SV_5stERquS1sZB8qO,,,,,,0,0,NA,NA,NA,NA,1,0,0
2.24973500007764,r,23.24851,2,45,1,1,0,28.52908,-0.0101851589977741,-0.0101852003898886,0,0,0,0,0,0,0,1,218716,2021-05-19_09h02.33.476,controlmir,2020.1.3,Win32,60,SV_5stERquS1sZB8qO,,,,,,0,0,NA,NA,NA,NA,1,0,0
2.26670500007458,r,23.24851,2,45,1,1,0,28.52908,-0.00833330709073279,-0.00833334848284721,0,0,0,0,0,0,0,1,218716,2021-05-19_09h02.33.476,controlmir,2020.1.3,Win32,60,SV_5stERquS1sZB8qO,,,,,,0,0,NA,NA,NA,NA,1,0,0
2.28312500007451,r,23.24851,2,45,1,1,0,28.52908,-0.00833330709073279,-0.00833334848284721,0,0,0,0,0,0,0,1,218716,2021-05-19_09h02.33.476,controlmir,2020.1.3,Win32,60,SV_5stERquS1sZB8qO,,,,,,0,0,NA,NA,NA,NA,1,0,0
2.30034999991767,r,23.24851,2,45,1,1,0,28.52908,-0.00833330709073279,-0.00833334848284721,0,0,0,0,0,0,0,1,218716,2021-05-19_09h02.33.476,controlmir,2020.1.3,Win32,60,SV_5stERquS1sZB8qO,,,,,,0,0,NA,NA,NA,NA,1,0,0
2.31682500010356,r,23.24851,2,45,1,1,0,28.52908,-0.0064813986696562,-0.00648149657580588,0,0,0,0,0,0,0,1,218716,2021-05-19_09h02.33.476,controlmir,2020.1.3,Win32,60,SV_5stERquS1sZB8qO,,,,,,0,0,NA,NA,NA,NA,1,0,0
2.33299500006251,r,23.24851,2,45,1,1,0,28.52908,-0.0064813986696562,-0.00648149657580588,0,0,0,0,0,0,0,1,218716,2021-05-19_09h02.33.476,controlmir,2020.1.3,Win32,60,SV_5stERquS1sZB8qO,,,,,,0,0,NA,NA,NA,NA,1,0,0
2.35015000007115,r,23.24851,2,45,1,1,0,28.52908,-0.00555552923017078,-0.00462964466876454,0,0,0,0,0,0,0,1,218716,2021-05-19_09h02.33.476,controlmir,2020.1.3,Win32,60,SV_5stERquS1sZB8qO,,,,,,0,0,NA,NA,NA,NA,1,0,0
2.36678000004031,r,23.24851,2,45,1,1,0,28.52908,-0.0018518254160881,-0.000925940854681863,0,0,0,0,0,0,0,1,218716,2021-05-19_09h02.33.476,controlmir,2020.1.3,Win32,60,SV_5stERquS1sZB8qO,,,,,,0,0,NA,NA,NA,NA,1,0,0
2.38354999991134,r,23.24851,2,45,1,1,0,28.52908,2.64909532335069e-08,0.00277776295940081,0,0,0,0,0,0,0,1,218716,2021-05-19_09h02.33.476,controlmir,2020.1.3,Win32,60,SV_5stERquS1sZB8qO,,,,,,0,0,NA,NA,NA,NA,1,0,0
2.40108500001952,r,23.24851,2,45,1,1,0,28.52908,0.00185193491202982,0.00648146677348349,0,0,0,0,0,0,0,1,218716,2021-05-19_09h02.33.476,controlmir,2020.1.3,Win32,60,SV_5stERquS1sZB8qO,,,,,,0,0,NA,NA,NA,NA,1,0,0
2.41719499998726,r,23.24851,2,45,1,1,0,28.52908,0.00185193491202982,0.00833331868052483,0,0,0,0,0,0,0,1,218716,2021-05-19_09h02.33.476,controlmir,2020.1.3,Win32,60,SV_5stERquS1sZB8qO,,,,,,0,0,NA,NA,NA,NA,1,0,0
2.43325000000186,r,23.24851,2,45,1,1,0,28.52908,0.00185193491202982,0.00925924463404549,0,0,0,0,0,0,0,1,218716,2021-05-19_09h02.33.476,controlmir,2020.1.3,Win32,60,SV_5stERquS1sZB8qO,,,,,,0,0,NA,NA,NA,NA,1,0,0
2.44998000003397,r,23.24851,2,45,1,1,0,28.52908,0.00185193491202982,0.0101851705875662,0,0,0,0,0,0,0,1,218716,2021-05-19_09h02.33.476,controlmir,2020.1.3,Win32,60,SV_5stERquS1sZB8qO,,,,,,0,0,NA,NA,NA,NA,1,0,0
2.46663999999873,r,23.24851,2,45,1,1,0,28.52908,0.00185193491202982,0.0101851705875662,0,0,0,0,0,0,0,1,218716,2021-05-19_09h02.33.476,controlmir,2020.1.3,Win32,60,SV_5stERquS1sZB8qO,,,,,,0,0,NA,NA,NA,NA,1,0,0
2.48295499989763,r,23.24851,2,45,1,1,0,28.52908,0.00185193491202982,0.0101851705875662,0,0,0,0,0,0,0,1,218716,2021-05-19_09h02.33.476,controlmir,2020.1.3,Win32,60,SV_5stERquS1sZB8qO,,,,,,0,0,NA,NA,NA,NA,1,0,0
2.49973000003956,r,23.24851,2,45,1,1,0,28.52908,0.00185193491202982,0.0101851705875662,0,0,0,0,0,0,0,1,218716,2021-05-19_09h02.33.476,controlmir,2020.1.3,Win32,60,SV_5stERquS1sZB8qO,,,,,,0,0,NA,NA,NA,NA,1,0,0
2.51694000000134,r,23.24851,2,45,1,1,0,28.52908,0.00185193491202982,0.0101851705875662,0,0,0,0,0,0,0,1,218716,2021-05-19_09h02.33.476,controlmir,2020.1.3,Win32,60,SV_5stERquS1sZB8qO,,,,,,0,0,NA,NA,NA,NA,1,0,0
2.53293500002474,r,23.24851,2,45,1,1,0,28.52908,0.00185193491202982,0.0101851705875662,0,0,0,0,0,0,0,1,218716,2021-05-19_09h02.33.476,controlmir,2020.1.3,Win32,60,SV_5stERquS1sZB8qO,,,,,,0,0,NA,NA,NA,NA,1,0,0
2.54961999994703,r,23.24851,2,45,1,1,0,28.52908,0.00185193491202982,0.0101851705875662,0,0,0,0,0,0,0,1,218716,2021-05-19_09h02.33.476,controlmir,2020.1.3,Win32,60,SV_5stERquS1sZB8qO,,,,,,0,0,NA,NA,NA,NA,1,0,0
2.56630000006408,r,23.24851,2,45,1,1,0,28.52908,0.00185193491202982,0.0101851705875662,0,0,0,0,0,0,0,1,218716,2021-05-19_09h02.33.476,controlmir,2020.1.3,Win32,60,SV_5stERquS1sZB8qO,,,,,,0,0,NA,NA,NA,NA,1,0,0
2.58285000012256,r,23.24851,2,45,1,1,0,28.52908,0.00185193491202982,0.0101851705875662,0,0,0,0,0,0,0,1,218716,2021-05-19_09h02.33.476,controlmir,2020.1.3,Win32,60,SV_5stERquS1sZB8qO,,,,,,0,0,NA,NA,NA,NA,1,0,0
2.59965500002727,r,23.24851,2,45,1,1,0,28.52908,0.00185193491202982,0.0101851705875662,0,0,0,0,0,0,0,1,218716,2021-05-19_09h02.33.476,controlmir,2020.1.3,Win32,60,SV_5stERquS1sZB8qO,,,,,,0,0,NA,NA,NA,NA,1,0,0
2.61699000000954,r,23.24851,2,45,1,1,0,28.52908,0.00185193491202982,0.0101851705875662,0,0,0,0,0,0,0,1,218716,2021-05-19_09h02.33.476,controlmir,2020.1.3,Win32,60,SV_5stERquS1sZB8qO,,,,,,0,0,NA,NA,NA,NA,1,0,0
2.63461000006646,r,23.24851,2,45,1,1,0,28.52908,0.00185193491202982,0.0101851705875662,0,0,0,0,0,0,0,1,218716,2021-05-19_09h02.33.476,controlmir,2020.1.3,Win32,60,SV_5stERquS1sZB8qO,,,,,,0,0,NA,NA,NA,NA,1,0,0
2.65095999999903,r,23.24851,2,45,1,1,0,28.52908,0.00185193491202982,0.0101851705875662,0,0,0,0,0,0,0,1,218716,2021-05-19_09h02.33.476,controlmir,2020.1.3,Win32,60,SV_5stERquS1sZB8qO,,,,,,0,0,NA,NA,NA,NA,1,0,0
2.66763500007801,r,23.24851,2,45,1,1,0,28.52908,0.00185193491202982,0.0101851705875662,0,0,0,0,0,0,0,1,218716,2021-05-19_09h02.33.476,controlmir,2020.1.3,Win32,60,SV_5stERquS1sZB8qO,,,,,,0,0,NA,NA,NA,NA,1,0,0
2.68421999993734,r,23.24851,2,45,1,1,0,28.52908,0.00185193491202982,0.0101851705875662,0,0,0,0,0,0,0,1,218716,2021-05-19_09h02.33.476,controlmir,2020.1.3,Win32,60,SV_5stERquS1sZB8qO,,,,,,0,0,NA,NA,NA,NA,1,0,0
2.70142500009388,r,23.24851,2,45,1,1,0,28.52908,0.00185193491202982,0.0101851705875662,0,0,0,0,0,0,0,1,218716,2021-05-19_09h02.33.476,controlmir,2020.1.3,Win32,60,SV_5stERquS1sZB8qO,,,,,,0,0,NA,NA,NA,NA,1,0,0
2.71900500007905,r,23.24851,2,45,1,1,0,28.52908,0.00185193491202982,0.0101851705875662,0,0,0,0,0,0,0,1,218716,2021-05-19_09h02.33.476,controlmir,2020.1.3,Win32,60,SV_5stERquS1sZB8qO,,,,,,0,0,NA,NA,NA,NA,1,0,0
2.73412499995902,r,23.24851,2,45,1,1,0,28.52908,0.00185193491202982,0.0101851705875662,0,0,0,0,0,0,0,1,218716,2021-05-19_09h02.33.476,controlmir,2020.1.3,Win32,60,SV_5stERquS1sZB8qO,,,,,,0,0,NA,NA,NA,NA,1,0,0
2.75087499991059,r,23.24851,2,45,1,1,0,28.52908,0.00185193491202982,0.0101851705875662,0,0,0,0,0,0,0,1,218716,2021-05-19_09h02.33.476,controlmir,2020.1.3,Win32,60,SV_5stERquS1sZB8qO,,,,,,0,0,NA,NA,NA,NA,1,0,0
2.76777500007302,r,23.24851,2,45,1,1,0,28.52908,0.00185193491202982,0.0101851705875662,0,0,0,0,0,0,0,1,218716,2021-05-19_09h02.33.476,controlmir,2020.1.3,Win32,60,SV_5stERquS1sZB8qO,,,,,,0,0,NA,NA,NA,NA,1,0,0
2.78454499994405,r,23.24851,2,45,1,1,0,28.52908,0.00185193491202982,0.0101851705875662,0,0,0,0,0,0,0,1,218716,2021-05-19_09h02.33.476,controlmir,2020.1.3,Win32,60,SV_5stERquS1sZB8qO,,,,,,0,0,NA,NA,NA,NA,1,0,0
2.80059999995865,r,23.24851,2,45,1,1,0,28.52908,0.00185193491202982,0.0101851705875662,0,0,0,0,0,0,0,1,218716,2021-05-19_09h02.33.476,controlmir,2020.1.3,Win32,60,SV_5stERquS1sZB8qO,,,,,,0,0,NA,NA,NA,NA,1,0,0
2.81857499992475,r,23.24851,2,45,1,1,0,28.52908,0.00185193491202982,0.0101851705875662,0,0,0,0,0,0,0,1,218716,2021-05-19_09h02.33.476,controlmir,2020.1.3,Win32,60,SV_5stERquS1sZB8qO,,,,,,0,0,NA,NA,NA,NA,1,0,0
2.83420499996282,r,23.24851,2,45,1,1,0,28.52908,0.00185193491202982,0.0101851705875662,0,0,0,0,0,0,0,1,218716,2021-05-19_09h02.33.476,controlmir,2020.1.3,Win32,60,SV_5stERquS1sZB8qO,,,,,,0,0,NA,NA,NA,NA,1,0,0
2.85076500009745,r,23.24851,2,45,1,1,0,28.52908,0.00185193491202982,0.0101851705875662,0,0,0,0,0,0,0,1,218716,2021-05-19_09h02.33.476,controlmir,2020.1.3,Win32,60,SV_5stERquS1sZB8qO,,,,,,0,0,NA,NA,NA,NA,1,0,0
2.867409999948,r,23.24851,2,45,1,1,0,28.52908,0.00185193491202982,0.0101851705875662,0,0,0,0,0,0,0,1,218716,2021-05-19_09h02.33.476,controlmir,2020.1.3,Win32,60,SV_5stERquS1sZB8qO,,,,,,0,0,NA,NA,NA,NA,1,0,0
2.88431999995373,r,23.24851,2,45,1,1,0,28.52908,0.00185193491202982,0.0101851705875662,0,0,0,0,0,0,0,1,218716,2021-05-19_09h02.33.476,controlmir,2020.1.3,Win32,60,SV_5stERquS1sZB8qO,,,,,,0,0,NA,NA,NA,NA,1,0,0
2.9008249999024,r,23.24851,2,45,1,1,0,28.52908,0.00185193491202982,0.0101851705875662,0,0,0,0,0,0,0,1,218716,2021-05-19_09h02.33.476,controlmir,2020.1.3,Win32,60,SV_5stERquS1sZB8qO,,,,,,0,0,NA,NA,NA,NA,1,0,0
2.91870500007644,r,23.24851,2,45,1,1,0,28.52908,0.00185193491202982,0.0101851705875662,0,0,0,0,0,0,0,1,218716,2021-05-19_09h02.33.476,controlmir,2020.1.3,Win32,60,SV_5stERquS1sZB8qO,,,,,,0,0,NA,NA,NA,NA,1,0,0
2.93424000008963,r,23.24851,2,45,1,1,0,28.52908,0.00185193491202982,0.0101851705875662,0,0,0,0,0,0,0,1,218716,2021-05-19_09h02.33.476,controlmir,2020.1.3,Win32,60,SV_5stERquS1sZB8qO,,,,,,0,0,NA,NA,NA,NA,1,0,0
2.9497599999886,r,23.24851,2,45,1,1,0,28.52908,0.00185193491202982,0.0101851705875662,0,0,0,0,0,0,0,1,218716,2021-05-19_09h02.33.476,controlmir,2020.1.3,Win32,60,SV_5stERquS1sZB8qO,,,,,,0,0,NA,NA,NA,NA,1,0,0
2.96625500009395,r,23.24851,2,45,1,1,0,28.52908,0.00185193491202982,0.0101851705875662,0,0,0,0,0,0,0,1,218716,2021-05-19_09h02.33.476,controlmir,2020.1.3,Win32,60,SV_5stERquS1sZB8qO,,,,,,0,0,NA,NA,NA,NA,1,0,0
2.98383000004105,r,23.24851,2,45,1,1,0,28.52908,0.00185193491202982,0.0101851705875662,0,0,0,0,0,0,0,1,218716,2021-05-19_09h02.33.476,controlmir,2020.1.3,Win32,60,SV_5stERquS1sZB8qO,,,,,,0,0,NA,NA,NA,NA,1,0,0
3.00105000007898,r,23.24851,2,45,1,1,0,28.52908,0.00185193491202982,0.0101851705875662,0,0,0,0,0,0,0,1,218716,2021-05-19_09h02.33.476,controlmir,2020.1.3,Win32,60,SV_5stERquS1sZB8qO,,,,,,0,0,NA,NA,NA,NA,1,0,0
3.01905000000261,r,23.24851,2,45,1,1,0,28.52908,0.00185193491202982,0.0101851705875662,0,0,0,0,0,0,0,1,218716,2021-05-19_09h02.33.476,controlmir,2020.1.3,Win32,60,SV_5stERquS1sZB8qO,,,,,,0,0,NA,NA,NA,NA,1,0,0
3.03419000003487,r,23.24851,2,45,1,1,0,28.52908,0.00185193491202982,0.0101851705875662,0,0,0,0,0,0,0,1,218716,2021-05-19_09h02.33.476,controlmir,2020.1.3,Win32,60,SV_5stERquS1sZB8qO,,,,,,0,0,NA,NA,NA,NA,1,0,0
3.05145499994978,r,23.24851,2,45,1,1,0,28.52908,0.00185193491202982,0.0101851705875662,0,0,0,0,0,0,0,1,218716,2021-05-19_09h02.33.476,controlmir,2020.1.3,Win32,60,SV_5stERquS1sZB8qO,,,,,,0,0,NA,NA,NA,NA,1,0,0
3.0673849999439,r,23.24851,2,45,1,1,0,28.52908,0.00185193491202982,0.0101851705875662,0,0,0,0,0,0,0,1,218716,2021-05-19_09h02.33.476,controlmir,2020.1.3,Win32,60,SV_5stERquS1sZB8qO,,,,,,0,0,NA,NA,NA,NA,1,0,0
3.08396499999799,r,23.24851,2,45,1,1,0,28.52908,0.00185193491202982,0.0101851705875662,0,0,0,0,0,0,0,1,218716,2021-05-19_09h02.33.476,controlmir,2020.1.3,Win32,60,SV_5stERquS1sZB8qO,,,,,,0,0,NA,NA,NA,NA,1,0,0
3.10049000009894,r,23.24851,2,45,1,1,0,28.52908,0.00185193491202982,0.0101851705875662,0,0,0,0,0,0,0,1,218716,2021-05-19_09h02.33.476,controlmir,2020.1.3,Win32,60,SV_5stERquS1sZB8qO,,,,,,0,0,NA,NA,NA,NA,1,0,0
3.11831000004895,r,23.24851,2,45,1,1,0,28.52908,0.00185193491202982,0.0101851705875662,0,0,0,0,0,0,0,1,218716,2021-05-19_09h02.33.476,controlmir,2020.1.3,Win32,60,SV_5stERquS1sZB8qO,,,,,,0,0,NA,NA,NA,NA,1,0,0
3.13383499998599,r,23.24851,2,45,1,1,0,28.52908,0.00185193491202982,0.0101851705875662,0,0,0,0,0,0,0,1,218716,2021-05-19_09h02.33.476,controlmir,2020.1.3,Win32,60,SV_5stERquS1sZB8qO,,,,,,0,0,NA,NA,NA,NA,1,0,0
3.1508249999024,r,23.24851,2,45,1,1,0,28.52908,0.00185193491202982,0.0101851705875662,0,0,0,0,0,0,0,1,218716,2021-05-19_09h02.33.476,controlmir,2020.1.3,Win32,60,SV_5stERquS1sZB8qO,,,,,,0,0,NA,NA,NA,NA,1,0,0
3.16706999996677,r,23.24851,2,45,1,1,0,28.52908,0.00185193491202982,0.0101851705875662,0,0,0,0,0,0,0,1,218716,2021-05-19_09h02.33.476,controlmir,2020.1.3,Win32,60,SV_5stERquS1sZB8qO,,,,,,0,0,NA,NA,NA,NA,1,0,0
3.18397499993444,r,23.24851,2,45,1,1,0,28.52908,0.00185193491202982,0.0101851705875662,0,0,0,0,0,0,0,1,218716,2021-05-19_09h02.33.476,controlmir,2020.1.3,Win32,60,SV_5stERquS1sZB8qO,,,,,,0,0,NA,NA,NA,NA,1,0,0
3.2014649999328,r,23.24851,2,45,1,1,0,28.52908,0.00185193491202982,0.0101851705875662,0,0,0,0,0,0,0,1,218716,2021-05-19_09h02.33.476,controlmir,2020.1.3,Win32,60,SV_5stERquS1sZB8qO,,,,,,0,0,NA,NA,NA,NA,1,0,0
3.21919000009075,r,23.24851,2,45,1,1,0,28.52908,0.00185193491202982,0.0101851705875662,0,0,0,0,0,0,0,1,218716,2021-05-19_09h02.33.476,controlmir,2020.1.3,Win32,60,SV_5stERquS1sZB8qO,,,,,,0,0,NA,NA,NA,NA,1,0,0
3.23401500005275,r,23.24851,2,45,1,1,0,28.52908,0.00185193491202982,0.0101851705875662,0,0,0,0,0,0,0,1,218716,2021-05-19_09h02.33.476,controlmir,2020.1.3,Win32,60,SV_5stERquS1sZB8qO,,,,,,0,0,NA,NA,NA,NA,1,0,0
3.25071000005119,r,23.24851,2,45,1,1,0,28.52908,0.00185193491202982,0.0101851705875662,0,0,0,0,0,0,0,1,218716,2021-05-19_09h02.33.476,controlmir,2020.1.3,Win32,60,SV_5stERquS1sZB8qO,,,,,,0,0,NA,NA,NA,NA,1,0,0
3.26729499991052,r,23.24851,2,45,1,1,0,28.52908,0.00185193491202982,0.0101851705875662,0,0,0,0,0,0,0,1,218716,2021-05-19_09h02.33.476,controlmir,2020.1.3,Win32,60,SV_5stERquS1sZB8qO,,,,,,0,0,NA,NA,NA,NA,1,0,0
3.2826950000599,r,23.24851,2,45,1,1,0,28.52908,0.00185193491202982,0.0101851705875662,0,0,0,0,0,0,0,1,218716,2021-05-19_09h02.33.476,controlmir,2020.1.3,Win32,60,SV_5stERquS1sZB8qO,,,,,,0,0,NA,NA,NA,NA,1,0,0
3.29915999993682,r,23.24851,2,45,1,1,0,28.52908,0.00185193491202982,0.0101851705875662,0,0,0,0,0,0,0,1,218716,2021-05-19_09h02.33.476,controlmir,2020.1.3,Win32,60,SV_5stERquS1sZB8qO,,,,,,0,0,NA,NA,NA,NA,1,0,0
3.31627000006847,r,23.24851,2,45,1,1,0,28.52908,0.00185193491202982,0.0101851705875662,0,0,0,0,0,0,0,1,218716,2021-05-19_09h02.33.476,controlmir,2020.1.3,Win32,60,SV_5stERquS1sZB8qO,,,,,,0,0,NA,NA,NA,NA,1,0,0
3.33247000002302,r,23.24851,2,45,1,1,0,28.52908,0.00185193491202982,0.0101851705875662,0,0,0,0,0,0,0,1,218716,2021-05-19_09h02.33.476,controlmir,2020.1.3,Win32,60,SV_5stERquS1sZB8qO,,,,,,0,0,NA,NA,NA,NA,1,0,1
3.34912999998778,r,23.24851,2,45,1,1,0,28.52908,0.00185193491202982,0.0101851705875662,0,0,0,0,0,0,0,1,218716,2021-05-19_09h02.33.476,controlmir,2020.1.3,Win32,60,SV_5stERquS1sZB8qO,,,,,,0,0,NA,NA,NA,NA,1,0,1
3.36583500006236,r,23.24851,2,45,1,1,0,28.52908,0.00185193491202982,0.0101851705875662,0,0,0,0,0,0,0,1,218716,2021-05-19_09h02.33.476,controlmir,2020.1.3,Win32,60,SV_5stERquS1sZB8qO,,,,,,0,0,NA,NA,NA,NA,1,0,1
3.3826649999246,r,23.24851,2,45,1,1,0,28.52908,0.00462971277259183,0.0129629484481282,0,0,0,0,0,0,0,1,218716,2021-05-19_09h02.33.476,controlmir,2020.1.3,Win32,60,SV_5stERquS1sZB8qO,,,,,,0,0,NA,NA,NA,NA,1,0,1
3.40087000001222,r,23.24851,2,45,1,1,0,28.52908,0.00740749063315383,0.0138888744016488,0,0,0,0,0,0,0,1,218716,2021-05-19_09h02.33.476,controlmir,2020.1.3,Win32,60,SV_5stERquS1sZB8qO,,,,,,0,0,NA,NA,NA,NA,1,0,1
3.41860500001349,r,23.24851,2,45,1,1,0,28.52908,0.0101852684937158,0.0157407263086902,0,0,0,0,0,0,0,1,218716,2021-05-19_09h02.33.476,controlmir,2020.1.3,Win32,60,SV_5stERquS1sZB8qO,,,,,,0,0,NA,NA,NA,NA,1,0,1
3.43394499993883,r,23.24851,2,45,1,1,0,28.52908,0.0101852684937158,0.0157407263086902,0,0,0,0,0,0,0,1,218716,2021-05-19_09h02.33.476,controlmir,2020.1.3,Win32,60,SV_5stERquS1sZB8qO,,,,,,0,0,NA,NA,NA,NA,1,0,1
3.45111000002362,r,23.24851,2,45,1,1,0,28.52908,0.0111111379332013,0.0175925782157315,0,0,0,0,0,0,0,1,218716,2021-05-19_09h02.33.476,controlmir,2020.1.3,Win32,60,SV_5stERquS1sZB8qO,,,,,,0,0,NA,NA,NA,NA,1,0,1
3.46770999999717,r,23.24851,2,45,1,1,0,28.52908,0.0120370638867219,0.0185185041692522,0,0,0,0,0,0,0,1,218716,2021-05-19_09h02.33.476,controlmir,2020.1.3,Win32,60,SV_5stERquS1sZB8qO,,,,,,0,0,NA,NA,NA,NA,1,0,1
3.48444000002928,r,23.24851,2,45,1,1,0,28.52908,0.0138889157937633,0.0203703560762935,0,0,0,0,0,0,0,1,218716,2021-05-19_09h02.33.476,controlmir,2020.1.3,Win32,60,SV_5stERquS1sZB8qO,,,,,,0,0,NA,NA,NA,NA,1,0,1
3.50099500012584,r,23.24851,2,45,1,1,0,28.52908,0.0185186020754019,0.0231481339368555,0,0,0,0,0,0,0,1,218716,2021-05-19_09h02.33.476,controlmir,2020.1.3,Win32,60,SV_5stERquS1sZB8qO,,,,,,0,0,NA,NA,NA,NA,1,0,1
3.51890000002459,r,23.24851,2,45,1,1,0,28.52908,0.02314817532897,0.0259259117974175,0,0,0,0,0,0,0,1,218716,2021-05-19_09h02.33.476,controlmir,2020.1.3,Win32,60,SV_5stERquS1sZB8qO,,,,,,0,0,NA,NA,NA,NA,1,0,1
3.53487999993376,r,23.24851,2,45,1,1,0,28.52908,0.0296297135176499,0.0287036896579795,0,0,0,0,0,0,0,1,218716,2021-05-19_09h02.33.476,controlmir,2020.1.3,Win32,60,SV_5stERquS1sZB8qO,,,,,,0,0,NA,NA,NA,NA,1,0,1
3.55186000000685,r,23.24851,2,45,1,1,0,28.52908,0.0388889165388213,0.0342592453791036,0,0,0,0,0,0,0,1,218716,2021-05-19_09h02.33.476,controlmir,2020.1.3,Win32,60,SV_5stERquS1sZB8qO,,,,,,0,0,NA,NA,NA,NA,1,0,1
3.56769499997608,r,23.24851,2,45,1,1,0,28.52908,0.0462963806810219,0.0398148011002276,0,0,0,0,0,0,0,1,218716,2021-05-19_09h02.33.476,controlmir,2020.1.3,Win32,60,SV_5stERquS1sZB8qO,,,,,,0,0,NA,NA,NA,NA,1,0,1
3.58459000010043,r,23.24851,2,45,1,1,0,28.52908,0.053703731795152,0.0435184766572926,0,0,0,0,0,0,0,1,218716,2021-05-19_09h02.33.476,controlmir,2020.1.3,Win32,60,SV_5stERquS1sZB8qO,,,,,,0,0,NA,NA,NA,NA,1,0,1
3.60120499995537,r,23.24851,2,45,1,1,0,28.52908,0.0620370653768381,0.0509259125424756,0,0,0,0,0,0,0,1,218716,2021-05-19_09h02.33.476,controlmir,2020.1.3,Win32,60,SV_5stERquS1sZB8qO,,,,,,0,0,NA,NA,NA,NA,1,0,1
3.61871500010602,r,23.24851,2,45,1,1,0,28.52908,0.0675926210979621,0.0574073659601027,0,0,0,0,0,0,0,1,218716,2021-05-19_09h02.33.476,controlmir,2020.1.3,Win32,60,SV_5stERquS1sZB8qO,,,,,,0,0,NA,NA,NA,NA,1,0,1
3.63464500010014,r,23.24851,2,45,1,1,0,28.52908,0.0712963249120447,0.061111098031203,0,0,0,0,0,0,0,1,218716,2021-05-19_09h02.33.476,controlmir,2020.1.3,Win32,60,SV_5stERquS1sZB8qO,,,,,,0,0,NA,NA,NA,NA,1,0,1
3.65080499998294,r,23.24851,2,45,1,1,0,28.52908,0.0759259546796481,0.0648148018452856,0,0,0,0,0,0,0,1,218716,2021-05-19_09h02.33.476,controlmir,2020.1.3,Win32,60,SV_5stERquS1sZB8qO,,,,,,0,0,NA,NA,NA,NA,1,0,1
3.66788000008091,r,23.24851,2,45,1,1,0,28.52908,0.0796296584937308,0.0712962552629127,0,0,0,0,0,0,0,1,218716,2021-05-19_09h02.33.476,controlmir,2020.1.3,Win32,60,SV_5stERquS1sZB8qO,,,,,,0,0,NA,NA,NA,NA,1,0,1
3.68436000007205,r,23.24851,2,45,1,1,0,28.52908,0.0851852142148548,0.0768518109840367,0,0,0,0,0,0,0,1,218716,2021-05-19_09h02.33.476,controlmir,2020.1.3,Win32,60,SV_5stERquS1sZB8qO,,,,,,0,0,NA,NA,NA,NA,1,0,1
3.70097499992698,r,23.24851,2,45,1,1,0,28.52908,0.0907407699359788,0.0824073667051607,0,0,0,0,0,0,0,1,218716,2021-05-19_09h02.33.476,controlmir,2020.1.3,Win32,60,SV_5stERquS1sZB8qO,,,,,,0,0,NA,NA,NA,NA,1,0,1
3.71880499995314,r,23.24851,2,45,1,1,0,28.52908,0.0962963256571028,0.091666654497385,0,0,0,0,0,0,0,1,218716,2021-05-19_09h02.33.476,controlmir,2020.1.3,Win32,60,SV_5stERquS1sZB8qO,,,,,,0,0,NA,NA,NA,NA,1,0,1
3.73447000002489,r,23.24851,2,45,1,1,0,28.52908,0.103703733285268,0.100925914032592,0,0,0,0,0,0,0,1,218716,2021-05-19_09h02.33.476,controlmir,2020.1.3,Win32,60,SV_5stERquS1sZB8qO,,,,,,0,0,NA,NA,NA,NA,1,0,1
3.75096000009216,r,23.24851,2,45,1,1,0,28.52908,0.108333363052871,0.110185145310781,0,0,0,0,0,0,0,1,218716,2021-05-19_09h02.33.476,controlmir,2020.1.3,Win32,60,SV_5stERquS1sZB8qO,,,,,,0,0,NA,NA,NA,NA,1,0,1
3.76882000011392,r,23.24851,2,45,1,1,0,28.52908,0.117592622588078,0.120370359056526,0,0,0,0,0,0,0,1,218716,2021-05-19_09h02.33.476,controlmir,2020.1.3,Win32,60,SV_5stERquS1sZB8qO,,,,,,0,0,NA,NA,NA,NA,1,0,1
3.78474500006996,r,23.24851,2,45,1,1,0,28.52908,0.125925956169764,0.132407368195277,0,0,0,0,0,0,0,1,218716,2021-05-19_09h02.33.476,controlmir,2020.1.3,Win32,60,SV_5stERquS1sZB8qO,,,,,,0,0,NA,NA,NA,NA,1,1,1
3.80138000007719,r,23.24851,2,45,1,1,0,28.52908,0.13333336379793,0.144444433848063,0,0,0,0,0,0,0,1,218716,2021-05-19_09h02.33.476,controlmir,2020.1.3,Win32,60,SV_5stERquS1sZB8qO,,,,,,0,0,NA,NA,NA,NA,1,0,1
3.81942500011064,r,23.24851,2,45,1,1,0,28.52908,0.139814845472574,0.160185175057915,0,0,0,0,0,0,0,1,218716,2021-05-19_09h02.33.476,controlmir,2020.1.3,Win32,60,SV_5stERquS1sZB8qO,,,,,,0,0,NA,NA,NA,NA,1,0,1
3.83419500011951,r,23.24851,2,45,1,1,0,28.52908,0.143518549286657,0.165740730779039,0,0,0,0,0,0,0,1,218716,2021-05-19_09h02.33.476,controlmir,2020.1.3,Win32,60,SV_5stERquS1sZB8qO,,,,,,0,0,NA,NA,NA,NA,1,0,1
3.85062499996275,r,23.24851,2,45,1,1,0,28.52908,0.146296327147219,0.173148138407204,0,0,0,0,0,0,0,1,218716,2021-05-19_09h02.33.476,controlmir,2020.1.3,Win32,60,SV_5stERquS1sZB8qO,,,,,,0,0,NA,NA,NA,NA,1,0,1
3.86738499999046,r,23.24851,2,45,1,1,0,28.52908,0.149074105007781,0.179629620081849,0,0,0,0,0,0,0,1,218716,2021-05-19_09h02.33.476,controlmir,2020.1.3,Win32,60,SV_5stERquS1sZB8qO,,,,,,0,0,NA,NA,NA,NA,1,0,1
3.88422499992885,r,23.24851,2,45,1,1,0,28.52908,0.151851882868343,0.183333323895931,0,0,0,0,0,0,0,1,218716,2021-05-19_09h02.33.476,controlmir,2020.1.3,Win32,60,SV_5stERquS1sZB8qO,,,,,,0,0,NA,NA,NA,NA,1,0,1
3.90094999992289,r,23.24851,2,45,1,1,0,28.52908,0.155555586682426,0.189814805570576,0,0,0,0,0,0,0,1,218716,2021-05-19_09h02.33.476,controlmir,2020.1.3,Win32,60,SV_5stERquS1sZB8qO,,,,,,0,0,NA,NA,NA,NA,1,0,1
3.91939499997534,r,23.24851,2,45,1,1,0,28.52908,0.159259290496508,0.194444435338179,0,0,0,0,0,0,0,1,218716,2021-05-19_09h02.33.476,controlmir,2020.1.3,Win32,60,SV_5stERquS1sZB8qO,,,,,,0,0,NA,NA,NA,NA,1,0,1
3.93556000012904,r,23.24851,2,45,1,1,0,28.52908,0.16203706835707,0.199074065105783,0,0,0,0,0,0,0,1,218716,2021-05-19_09h02.33.476,controlmir,2020.1.3,Win32,60,SV_5stERquS1sZB8qO,,,,,,0,0,NA,NA,NA,NA,1,0,1
3.95167000009678,r,23.24851,2,45,1,1,0,28.52908,0.166666698124674,0.202777768919865,0,0,0,0,0,0,0,1,218716,2021-05-19_09h02.33.476,controlmir,2020.1.3,Win32,60,SV_5stERquS1sZB8qO,,,,,,0,0,NA,NA,NA,NA,1,0,1
3.96803499991074,r,23.24851,2,45,1,1,0,28.52908,0.173148179799318,0.210185176548031,0,0,0,0,0,0,0,1,218716,2021-05-19_09h02.33.476,controlmir,2020.1.3,Win32,60,SV_5stERquS1sZB8qO,,,,,,0,0,NA,NA,NA,NA,1,0,1
3.98462000000291,r,23.24851,2,45,1,1,0,28.52908,0.178703735520442,0.216666658222675,0,0,0,0,0,0,0,1,218716,2021-05-19_09h02.33.476,controlmir,2020.1.3,Win32,60,SV_5stERquS1sZB8qO,,,,,,0,0,NA,NA,NA,NA,1,0,1
4.00068500009365,r,23.24851,2,45,1,1,0,28.52908,0.184259291241566,0.221296287990279,0,0,0,0,0,0,0,1,218716,2021-05-19_09h02.33.476,controlmir,2020.1.3,Win32,60,SV_5stERquS1sZB8qO,,,,,,0,0,NA,NA,NA,NA,1,0,1
4.01879499992356,r,23.24851,2,45,1,1,0,28.52908,0.194444476730294,0.226851843711403,0,0,0,0,0,0,0,1,218716,2021-05-19_09h02.33.476,controlmir,2020.1.3,Win32,60,SV_5stERquS1sZB8qO,,,,,,0,0,NA,NA,NA,NA,1,0,1
4.03441999992356,r,23.24851,2,45,1,1,0,28.52908,0.200925958404938,0.231481473479006,0,0,0,0,0,0,0,1,218716,2021-05-19_09h02.33.476,controlmir,2020.1.3,Win32,60,SV_5stERquS1sZB8qO,,,,,,0,0,NA,NA,NA,NA,1,0,1
4.05083500011824,r,23.24851,2,45,1,1,0,28.52908,0.207407440079583,0.23703702920013,0,0,0,0,0,0,0,1,218716,2021-05-19_09h02.33.476,controlmir,2020.1.3,Win32,60,SV_5stERquS1sZB8qO,,,,,,0,0,NA,NA,NA,NA,1,0,1
4.06832000007853,r,23.24851,2,45,1,1,0,28.52908,0.211111143893666,0.240740733014213,0,0,0,0,0,0,0,1,218716,2021-05-19_09h02.33.476,controlmir,2020.1.3,Win32,60,SV_5stERquS1sZB8qO,,,,,,0,0,NA,NA,NA,NA,1,0,1
4.08389000012539,r,23.24851,2,45,1,1,0,28.52908,0.219444477475352,0.243518510874775,0,0,0,0,0,0,0,1,218716,2021-05-19_09h02.33.476,controlmir,2020.1.3,Win32,60,SV_5stERquS1sZB8qO,,,,,,0,0,NA,NA,NA,NA,1,0,1
4.10279999999329,r,23.24851,2,45,1,1,0,28.52908,0.223148181289434,0.245370362781816,0,0,0,0,0,0,0,1,218716,2021-05-19_09h02.33.476,controlmir,2020.1.3,Win32,60,SV_5stERquS1sZB8qO,,,,,,0,0,NA,NA,NA,NA,1,0,1
4.11867500003427,r,23.24851,2,45,1,1,0,28.52908,0.229629662964079,0.248148140642378,0,0,0,0,0,0,0,1,218716,2021-05-19_09h02.33.476,controlmir,2020.1.3,Win32,60,SV_5stERquS1sZB8qO,,,,,,0,0,NA,NA,NA,NA,1,0,1
4.13405500003137,r,23.24851,2,45,1,1,0,28.52908,0.232407440824641,0.249999992549419,0,0,0,0,0,0,0,1,218716,2021-05-19_09h02.33.476,controlmir,2020.1.3,Win32,60,SV_5stERquS1sZB8qO,,,,,,0,0,NA,NA,NA,NA,1,0,1
4.1509350000415,r,23.24851,2,45,1,1,0,28.52908,0.236111144638724,0.252777770409981,0,0,0,0,0,0,0,1,218716,2021-05-19_09h02.33.476,controlmir,2020.1.3,Win32,60,SV_5stERquS1sZB8qO,,,,,,0,0,NA,NA,NA,NA,1,0,1
4.1677099999506,r,23.24851,2,45,1,1,0,28.52908,0.238888922499286,0.257407400177585,0,0,0,0,0,0,0,1,218716,2021-05-19_09h02.33.476,controlmir,2020.1.3,Win32,60,SV_5stERquS1sZB8qO,,,,,,0,0,NA,NA,NA,NA,1,0,1
4.18433999991976,r,23.24851,2,45,1,1,0,28.52908,0.243518552266889,0.260185178038147,0,0,0,0,0,0,0,1,218716,2021-05-19_09h02.33.476,controlmir,2020.1.3,Win32,60,SV_5stERquS1sZB8qO,,,,,,0,0,NA,NA,NA,NA,1,0,1
4.2013099999167,r,23.24851,2,45,1,1,0,28.52908,0.247222256080972,0.262037029945188,0,0,0,0,0,0,0,1,218716,2021-05-19_09h02.33.476,controlmir,2020.1.3,Win32,60,SV_5stERquS1sZB8qO,,,,,,0,0,NA,NA,NA,NA,1,0,1
4.21946000005119,r,23.24851,3,45,1,1,0,28.52908,0.250000033941534,0.264814793677241,0,0,0,0,0,0,0,1,218716,2021-05-19_09h02.33.476,controlmir,2020.1.3,Win32,60,SV_5stERquS1sZB8qO,,,,,,0,0,NA,NA,NA,NA,1,1,1
4.23436999996193,r,23.24851,3,45,1,1,0,28.52908,0.252777811802096,0.267592571537803,0,0,0,0,0,0,0,1,218716,2021-05-19_09h02.33.476,controlmir,2020.1.3,Win32,60,SV_5stERquS1sZB8qO,,,,,,0,0,NA,NA,NA,NA,1,0,1
4.25110500003211,r,23.24851,3,45,1,1,0,28.52908,0.254629663709137,0.269444437573354,0,0,0,0,0,0,0,1,218716,2021-05-19_09h02.33.476,controlmir,2020.1.3,Win32,60,SV_5stERquS1sZB8qO,,,,,,0,0,NA,NA,NA,NA,1,0,1
4.26729000010528,r,23.24851,3,45,1,1,0,28.52908,0.255555589662658,0.270370349398365,0,0,0,0,0,0,0,1,218716,2021-05-19_09h02.33.476,controlmir,2020.1.3,Win32,60,SV_5stERquS1sZB8qO,,,,,,0,0,NA,NA,NA,NA,1,0,1
4.2838650001213,r,23.24851,3,45,1,1,0,28.52908,0.260185219430261,0.274074067340957,0,0,0,0,0,0,0,1,218716,2021-05-19_09h02.33.476,controlmir,2020.1.3,Win32,60,SV_5stERquS1sZB8qO,,,,,,0,0,NA,NA,NA,NA,1,0,1
4.29994500009343,r,23.24851,3,45,1,1,0,28.52908,0.260185219430261,0.274074067340957,0,0,0,0,0,0,0,1,218716,2021-05-19_09h02.33.476,controlmir,2020.1.3,Win32,60,SV_5stERquS1sZB8qO,,,,,,0,0,NA,NA,NA,NA,1,0,1
4.31876499997452,r,23.24851,3,45,1,1,0,28.52908,0.263888923244344,0.275925905119489,0,0,0,0,0,0,0,1,218716,2021-05-19_09h02.33.476,controlmir,2020.1.3,Win32,60,SV_5stERquS1sZB8qO,,,,,,0,0,NA,NA,NA,NA,1,0,1
4.3340549999848,r,23.24851,3,45,1,1,0,28.52908,0.267592627058427,0.275925905119489,0,0,0,0,0,0,0,1,218716,2021-05-19_09h02.33.476,controlmir,2020.1.3,Win32,60,SV_5stERquS1sZB8qO,,,,,,0,0,NA,NA,NA,NA,1,0,1
4.35094000003301,r,23.24851,3,45,1,1,0,28.52908,0.27222225682603,0.276851845201519,0,0,0,0,0,0,0,1,218716,2021-05-19_09h02.33.476,controlmir,2020.1.3,Win32,60,SV_5stERquS1sZB8qO,,,,,,0,0,NA,NA,NA,NA,1,0,1
4.36758999992162,r,23.24851,3,45,1,1,0,28.52908,0.275925960640113,0.276851845201519,0,0,0,0,0,0,0,1,218716,2021-05-19_09h02.33.476,controlmir,2020.1.3,Win32,60,SV_5stERquS1sZB8qO,,,,,,0,0,NA,NA,NA,NA,1,0,1
4.38451500004157,r,23.24851,3,45,1,1,0,28.52908,0.278703738500675,0.276851845201519,0,0,0,0,0,0,0,1,218716,2021-05-19_09h02.33.476,controlmir,2020.1.3,Win32,60,SV_5stERquS1sZB8qO,,,,,,0,0,NA,NA,NA,NA,1,0,1
4.40066500008106,r,23.24851,3,45,1,1,0,28.52908,0.279629664454195,0.27777777115504,0,0,0,0,0,0,0,1,218716,2021-05-19_09h02.33.476,controlmir,2020.1.3,Win32,60,SV_5stERquS1sZB8qO,,,,,,0,0,NA,NA,NA,NA,1,0,1
4.41755999997258,r,23.24851,3,45,1,1,0,28.52908,0.279629664454195,0.27777777115504,0,0,0,0,0,0,0,1,218716,2021-05-19_09h02.33.476,controlmir,2020.1.3,Win32,60,SV_5stERquS1sZB8qO,,,,,,0,0,NA,NA,NA,NA,1,0,1
4.4338150001131,r,23.24851,3,45,1,1,0,28.52908,0.280555590407716,0.278703682980051,0,0,0,0,0,0,0,1,218716,2021-05-19_09h02.33.476,controlmir,2020.1.3,Win32,60,SV_5stERquS1sZB8qO,,,,,,0,0,NA,NA,NA,NA,1,0,0
4.45017999992706,r,23.24851,3,45,1,1,0,28.52908,0.280555590407716,0.278703682980051,0,0,0,0,0,0,0,1,218716,2021-05-19_09h02.33.476,controlmir,2020.1.3,Win32,60,SV_5stERquS1sZB8qO,,,,,,0,0,NA,NA,NA,NA,1,0,0
4.46699499990791,r,23.24851,3,45,1,1,0,28.52908,0.280555590407716,0.278703682980051,0,0,0,0,0,0,0,1,218716,2021-05-19_09h02.33.476,controlmir,2020.1.3,Win32,60,SV_5stERquS1sZB8qO,,,,,,0,0,NA,NA,NA,NA,1,0,0
4.48319000005722,r,23.24851,3,45,1,1,0,28.52908,0.280555590407716,0.278703682980051,0,0,0,0,0,0,0,1,218716,2021-05-19_09h02.33.476,controlmir,2020.1.3,Win32,60,SV_5stERquS1sZB8qO,,,,,,0,0,NA,NA,NA,NA,1,0,0
4.50002499995753,r,23.24851,3,45,1,1,0,28.52908,0.280555590407716,0.278703682980051,0,0,0,0,0,0,0,1,218716,2021-05-19_09h02.33.476,controlmir,2020.1.3,Win32,60,SV_5stERquS1sZB8qO,,,,,,0,0,NA,NA,NA,NA,1,0,0
4.51749500003643,r,23.24851,3,45,1,1,0,28.52908,0.280555590407716,0.278703682980051,0,0,0,0,0,0,0,1,218716,2021-05-19_09h02.33.476,controlmir,2020.1.3,Win32,60,SV_5stERquS1sZB8qO,,,,,,0,0,NA,NA,NA,NA,1,0,0
4.53346000006422,r,23.24851,3,45,1,1,0,28.52908,0.280555590407716,0.278703682980051,0,0,0,0,0,0,0,1,218716,2021-05-19_09h02.33.476,controlmir,2020.1.3,Win32,60,SV_5stERquS1sZB8qO,,,,,,0,0,NA,NA,NA,NA,1,0,0
4.5508250000421,r,23.24851,3,45,1,1,0,28.52908,0.278703738500675,0.278703682980051,0,0,0,0,0,0,0,1,218716,2021-05-19_09h02.33.476,controlmir,2020.1.3,Win32,60,SV_5stERquS1sZB8qO,,,,,,0,0,NA,NA,NA,NA,1,0,0
4.56759000010788,r,23.24851,3,45,1,1,0,28.52908,0.267592627058427,0.270370349398365,0,0,0,0,0,0,0,1,218716,2021-05-19_09h02.33.476,controlmir,2020.1.3,Win32,60,SV_5stERquS1sZB8qO,,,,,,0,0,NA,NA,NA,NA,1,0,0
4.58395499992184,r,23.24851,3,45,1,1,0,28.52908,0.254629663709137,0.262962955898709,0,0,0,0,0,0,0,1,218716,2021-05-19_09h02.33.476,controlmir,2020.1.3,Win32,60,SV_5stERquS1sZB8qO,,,,,,0,0,NA,NA,NA,NA,1,0,0
4.6007699999027,r,23.24851,3,45,1,1,0,28.52908,0.232407440824641,0.243518510874775,0,0,0,0,0,0,0,1,218716,2021-05-19_09h02.33.476,controlmir,2020.1.3,Win32,60,SV_5stERquS1sZB8qO,,,,,,0,0,NA,NA,NA,NA,1,0,0
4.61811999999918,r,23.24851,3,45,1,1,0,28.52908,0.206481514126062,0.213888880362113,0,0,0,0,0,0,0,1,218716,2021-05-19_09h02.33.476,controlmir,2020.1.3,Win32,60,SV_5stERquS1sZB8qO,,,,,,0,0,NA,NA,NA,NA,1,0,0
4.63398499996401,r,23.24851,3,45,1,1,0,28.52908,0.190740772916211,0.202777768919865,0,0,0,0,0,0,0,1,218716,2021-05-19_09h02.33.476,controlmir,2020.1.3,Win32,60,SV_5stERquS1sZB8qO,,,,,,0,0,NA,NA,NA,NA,1,0,0
4.6510399999097,r,23.24851,3,45,1,1,0,28.52908,0.182407439334525,0.193518509384659,0,0,0,0,0,0,0,1,218716,2021-05-19_09h02.33.476,controlmir,2020.1.3,Win32,60,SV_5stERquS1sZB8qO,,,,,,0,0,NA,NA,NA,NA,1,0,0
4.66672999993898,r,23.24851,3,45,1,1,0,28.52908,0.170370401938756,0.18148147198889,0,0,0,0,0,0,0,1,218716,2021-05-19_09h02.33.476,controlmir,2020.1.3,Win32,60,SV_5stERquS1sZB8qO,,,,,,0,0,NA,NA,NA,NA,1,0,0
4.68420500005595,r,23.24851,3,45,1,1,0,28.52908,0.162962994310591,0.169444434593121,0,0,0,0,0,0,0,1,218716,2021-05-19_09h02.33.476,controlmir,2020.1.3,Win32,60,SV_5stERquS1sZB8qO,,,,,,0,0,NA,NA,NA,NA,1,0,0
4.70055499998853,r,23.24851,3,45,1,1,0,28.52908,0.154629660728905,0.159259249104394,0,0,0,0,0,0,0,1,218716,2021-05-19_09h02.33.476,controlmir,2020.1.3,Win32,60,SV_5stERquS1sZB8qO,,,,,,0,0,NA,NA,NA,NA,1,0,0
4.71809999994002,r,23.24851,3,45,1,1,0,28.52908,0.149074105007781,0.148148137662146,0,0,0,0,0,0,0,1,218716,2021-05-19_09h02.33.476,controlmir,2020.1.3,Win32,60,SV_5stERquS1sZB8qO,,,,,,0,0,NA,NA,NA,NA,1,0,0
4.73493000003509,r,23.24851,3,45,1,1,0,28.52908,0.143518549286657,0.13981480408046,0,0,0,0,0,0,0,1,218716,2021-05-19_09h02.33.476,controlmir,2020.1.3,Win32,60,SV_5stERquS1sZB8qO,,,,,,0,0,NA,NA,NA,NA,1,0,0
4.75050000008196,r,23.24851,3,45,1,1,0,28.52908,0.137962993565533,0.132407368195277,0,0,0,0,0,0,0,1,218716,2021-05-19_09h02.33.476,controlmir,2020.1.3,Win32,60,SV_5stERquS1sZB8qO,,,,,,0,0,NA,NA,NA,NA,1,0,0
4.76728000002913,r,23.24851,3,45,1,1,0,28.52908,0.135185215704971,0.12592591477765,0,0,0,0,0,0,0,1,218716,2021-05-19_09h02.33.476,controlmir,2020.1.3,Win32,60,SV_5stERquS1sZB8qO,,,,,,0,0,NA,NA,NA,NA,1,0,0
4.78450000006706,r,23.24851,3,45,1,1,0,28.52908,0.130555585937368,0.118518478892467,0,0,0,0,0,0,0,1,218716,2021-05-19_09h02.33.476,controlmir,2020.1.3,Win32,60,SV_5stERquS1sZB8qO,,,,,,0,0,NA,NA,NA,NA,1,0,0
4.80075499997474,r,23.24851,3,45,1,1,0,28.52908,0.128703734030326,0.113888877381881,0,0,0,0,0,0,0,1,218716,2021-05-19_09h02.33.476,controlmir,2020.1.3,Win32,60,SV_5stERquS1sZB8qO,,,,,,0,0,NA,NA,NA,NA,1,0,0
4.81797500001267,r,23.24851,3,45,1,1,0,28.52908,0.126851882123285,0.11203702547484,0,0,0,0,0,0,0,1,218716,2021-05-19_09h02.33.476,controlmir,2020.1.3,Win32,60,SV_5stERquS1sZB8qO,,,,,,0,0,NA,NA,NA,NA,1,0,0
4.83454499999061,r,23.24851,3,45,1,1,0,28.52908,0.125925956169764,0.109259247614278,0,0,0,0,0,0,0,1,218716,2021-05-19_09h02.33.476,controlmir,2020.1.3,Win32,60,SV_5stERquS1sZB8qO,,,,,,0,0,NA,NA,NA,NA,1,0,0
4.85079000005499,r,23.24851,3,45,1,1,0,28.52908,0.125925956169764,0.108333321660757,0,0,0,0,0,0,0,1,218716,2021-05-19_09h02.33.476,controlmir,2020.1.3,Win32,60,SV_5stERquS1sZB8qO,,,,,,0,0,NA,NA,NA,NA,1,0,0
4.86656500003301,r,23.24851,3,45,1,1,0,28.52908,0.125925956169764,0.108333321660757,0,0,0,0,0,0,0,1,218716,2021-05-19_09h02.33.476,controlmir,2020.1.3,Win32,60,SV_5stERquS1sZB8qO,,,,,,0,0,NA,NA,NA,NA,1,0,0
4.88355499994941,r,23.24851,3,45,1,1,0,28.52908,0.125925956169764,0.108333321660757,0,0,0,0,0,0,0,1,218716,2021-05-19_09h02.33.476,controlmir,2020.1.3,Win32,60,SV_5stERquS1sZB8qO,,,,,,0,0,NA,NA,NA,NA,1,0,0
4.90067000011914,r,23.24851,3,45,1,1,0,28.52908,0.124074104262723,0.105555543800195,0,0,0,0,0,0,0,1,218716,2021-05-19_09h02.33.476,controlmir,2020.1.3,Win32,60,SV_5stERquS1sZB8qO,,,,,,0,0,NA,NA,NA,NA,1,0,0
4.91913000005297,r,23.24851,3,45,1,1,0,28.52908,0.122222252355682,0.101851811729095,0,0,0,0,0,0,0,1,218716,2021-05-19_09h02.33.476,controlmir,2020.1.3,Win32,60,SV_5stERquS1sZB8qO,,,,,,0,0,NA,NA,NA,NA,1,0,0
4.935899999924,r,23.24851,3,45,1,1,0,28.52908,0.121296326402161,0.099999988079071,0,0,0,0,0,0,0,1,218716,2021-05-19_09h02.33.476,controlmir,2020.1.3,Win32,60,SV_5stERquS1sZB8qO,,,,,,0,0,NA,NA,NA,NA,1,0,0
4.95127000007778,r,23.24851,3,45,1,1,0,28.52908,0.118518548541599,0.0953703583114677,0,0,0,0,0,0,0,1,218716,2021-05-19_09h02.33.476,controlmir,2020.1.3,Win32,60,SV_5stERquS1sZB8qO,,,,,,0,0,NA,NA,NA,NA,1,0,0
4.96793500008062,r,23.24851,3,45,1,1,0,28.52908,0.114814844727516,0.091666654497385,0,0,0,0,0,0,0,1,218716,2021-05-19_09h02.33.476,controlmir,2020.1.3,Win32,60,SV_5stERquS1sZB8qO,,,,,,0,0,NA,NA,NA,NA,1,0,0
4.98382500000298,r,23.24851,3,45,1,1,0,28.52908,0.109259289006392,0.083333320915699,0,0,0,0,0,0,0,1,218716,2021-05-19_09h02.33.476,controlmir,2020.1.3,Win32,60,SV_5stERquS1sZB8qO,,,,,,0,0,NA,NA,NA,NA,1,0,0
5.00042499997653,r,23.24851,3,45,1,1,0,28.52908,0.100925955424706,0.0740740331234747,0,0,0,0,0,0,0,1,218716,2021-05-19_09h02.33.476,controlmir,2020.1.3,Win32,60,SV_5stERquS1sZB8qO,,,,,,0,0,NA,NA,NA,NA,1,0,0
5.01825500000268,r,23.24851,3,45,1,1,0,28.52908,0.0842592882613341,0.0601851438206647,0,0,0,0,0,0,0,1,218716,2021-05-19_09h02.33.476,controlmir,2020.1.3,Win32,60,SV_5stERquS1sZB8qO,,,,,,0,0,NA,NA,NA,NA,1,0,0
5.03721500001848,r,23.24851,3,45,1,1,0,28.52908,0.0740741027726067,0.0518518102389786,0,0,0,0,0,0,0,1,218716,2021-05-19_09h02.33.476,controlmir,2020.1.3,Win32,60,SV_5stERquS1sZB8qO,,,,,,0,0,NA,NA,NA,NA,1,0,0
5.06513000000268,r,23.24851,3,45,1,1,0,28.52908,0.0629629913303587,0.0416666530072689,0,0,0,0,0,0,0,1,218716,2021-05-19_09h02.33.476,controlmir,2020.1.3,Win32,60,SV_5stERquS1sZB8qO,,,,,,0,0,NA,NA,NA,NA,1,0,0
5.08236000011675,r,23.24851,3,45,1,1,0,28.52908,0.054629714262708,0.0342592453791036,0,0,0,0,0,0,0,1,218716,2021-05-19_09h02.33.476,controlmir,2020.1.3,Win32,60,SV_5stERquS1sZB8qO,,,,,,0,0,NA,NA,NA,NA,1,0,0
5.10944000002928,r,23.24851,3,45,1,1,0,28.52908,0.0490741585415839,0.0305555415650209,0,0,0,0,0,0,0,1,218716,2021-05-19_09h02.33.476,controlmir,2020.1.3,Win32,60,SV_5stERquS1sZB8qO,,,,,,0,0,NA,NA,NA,NA,1,0,0
5.20431499998085,r,23.24851,3,45,1,1,0,28.52908,0.031481508910656,0.0203703560762935,0,0,0,0,0,0,0,1,218716,2021-05-19_09h02.33.476,controlmir,2020.1.3,Win32,60,SV_5stERquS1sZB8qO,,,,,,0,0,NA,NA,NA,NA,1,0,0
5.2182150001172,r,23.24851,3,45,1,1,0,28.52908,0.0268519356570879,0.0175925782157315,0,0,0,0,0,0,0,1,218716,2021-05-19_09h02.33.476,controlmir,2020.1.3,Win32,60,SV_5stERquS1sZB8qO,,,,,,0,0,NA,NA,NA,NA,1,0,0
0.000204999931156635,"",,1,275,1,1,1,32.1376,0.0268519356570879,0.0175925782157315,0,0,0,1,0,1,0,1,218716,2021-05-19_09h02.33.476,controlmir,2020.1.3,Win32,60,SV_5stERquS1sZB8qO,,,,,,0,0,NA,NA,NA,NA,1,1,0
0.021754999877885,"",,1,275,1,1,1,32.1376,0.020370397468408,0.0157407263086902,0,0,0,1,0,1,0,1,218716,2021-05-19_09h02.33.476,controlmir,2020.1.3,Win32,60,SV_5stERquS1sZB8qO,,,,,,0,0,NA,NA,NA,NA,1,0,0
0.0421799998730421,"",,2,275,1,1,1,32.1376,0.0111111379332013,0.0101851705875662,0,0,0,1,0,1,0,1,218716,2021-05-19_09h02.33.476,controlmir,2020.1.3,Win32,60,SV_5stERquS1sZB8qO,,,,,,0,0,NA,NA,NA,NA,1,0,0
0.0546049999538809,"",,2,275,1,1,1,32.1376,0.0101852684937158,0.0101851705875662,0,0,0,1,0,1,0,1,218716,2021-05-19_09h02.33.476,controlmir,2020.1.3,Win32,60,SV_5stERquS1sZB8qO,,,,,,0,0,NA,NA,NA,NA,1,0,0
0.0710650000255555,"",,2,275,1,1,1,32.1376,0.00648150816559792,0.00833331868052483,0,0,0,1,0,1,0,1,218716,2021-05-19_09h02.33.476,controlmir,2020.1.3,Win32,60,SV_5stERquS1sZB8qO,,,,,,0,0,NA,NA,NA,NA,1,0,0
0.0876899999566376,"",,2,275,1,1,1,32.1376,0.00462971277259183,0.00740739272700416,0,0,0,1,0,1,0,1,218716,2021-05-19_09h02.33.476,controlmir,2020.1.3,Win32,60,SV_5stERquS1sZB8qO,,,,,,0,0,NA,NA,NA,NA,1,0,0
0.104234999977052,"",,2,275,1,1,1,32.1376,0.00370373030503591,0.00740739272700416,0,0,0,1,0,1,0,1,218716,2021-05-19_09h02.33.476,controlmir,2020.1.3,Win32,60,SV_5stERquS1sZB8qO,,,,,,0,0,NA,NA,NA,NA,1,0,0
0.12118999985978,"",,2,275,1,1,1,32.1376,0.00185193491202982,0.00555554081996282,0,0,0,1,0,1,0,1,218716,2021-05-19_09h02.33.476,controlmir,2020.1.3,Win32,60,SV_5stERquS1sZB8qO,,,,,,0,0,NA,NA,NA,NA,1,0,0
0.137559999944642,"",,2,275,1,1,1,32.1376,0.000925952444473902,0.00555554081996282,0,0,0,1,0,1,0,1,218716,2021-05-19_09h02.33.476,controlmir,2020.1.3,Win32,60,SV_5stERquS1sZB8qO,,,,,,0,0,NA,NA,NA,NA,1,0,0
0.154124999884516,"",,2,275,1,1,1,32.1376,-0.0018518254160881,0.00370368891292148,0,0,0,1,0,1,0,1,218716,2021-05-19_09h02.33.476,controlmir,2020.1.3,Win32,60,SV_5stERquS1sZB8qO,,,,,,0,0,NA,NA,NA,NA,1,0,0
0.179134999867529,"",,2,275,1,1,1,32.1376,-0.00462960327665011,0.000925911052359475,0,0,0,1,0,1,0,1,218716,2021-05-19_09h02.33.476,controlmir,2020.1.3,Win32,60,SV_5stERquS1sZB8qO,,,,,,0,0,NA,NA,NA,NA,1,0,0
0.19433999992907,"",,2,275,1,1,1,32.1376,-0.00555552923017078,-1.49011611938477e-08,0,0,0,1,0,1,0,1,218716,2021-05-19_09h02.33.476,controlmir,2020.1.3,Win32,60,SV_5stERquS1sZB8qO,,,,,,0,0,NA,NA,NA,NA,1,0,0
0.206569999922067,"",,2,275,1,1,1,32.1376,-0.00555552923017078,-1.49011611938477e-08,0,0,0,1,0,1,0,1,218716,2021-05-19_09h02.33.476,controlmir,2020.1.3,Win32,60,SV_5stERquS1sZB8qO,,,,,,0,0,NA,NA,NA,NA,1,0,0
0.221834999974817,"",,2,275,1,1,1,32.1376,-0.00740738113721212,-1.49011611938477e-08,0,0,0,1,0,1,0,1,218716,2021-05-19_09h02.33.476,controlmir,2020.1.3,Win32,60,SV_5stERquS1sZB8qO,,,,,,0,0,NA,NA,NA,NA,1,0,0
0.236774999881163,"",,2,275,1,1,1,32.1376,-0.00740738113721212,-1.49011611938477e-08,0,0,0,1,0,1,0,1,218716,2021-05-19_09h02.33.476,controlmir,2020.1.3,Win32,60,SV_5stERquS1sZB8qO,,,,,,0,0,NA,NA,NA,NA,1,0,0
0.25351499998942,"",,2,275,1,1,1,32.1376,-0.00740738113721212,-1.49011611938477e-08,0,0,0,1,0,1,0,1,218716,2021-05-19_09h02.33.476,controlmir,2020.1.3,Win32,60,SV_5stERquS1sZB8qO,,,,,,0,0,NA,NA,NA,NA,1,0,0
0.270034999819472,"",,2,275,1,1,1,32.1376,-0.00740738113721212,-1.49011611938477e-08,0,0,0,1,0,1,0,1,218716,2021-05-19_09h02.33.476,controlmir,2020.1.3,Win32,60,SV_5stERquS1sZB8qO,,,,,,0,0,NA,NA,NA,NA,1,0,0
0.286814999999478,"",,2,275,1,1,1,32.1376,-0.00740738113721212,-1.49011611938477e-08,0,0,0,1,0,1,0,1,218716,2021-05-19_09h02.33.476,controlmir,2020.1.3,Win32,60,SV_5stERquS1sZB8qO,,,,,,0,0,NA,NA,NA,NA,1,0,0
0.303319999948144,"",,2,275,1,1,1,32.1376,-0.00740738113721212,-1.49011611938477e-08,0,0,0,1,0,1,0,1,218716,2021-05-19_09h02.33.476,controlmir,2020.1.3,Win32,60,SV_5stERquS1sZB8qO,,,,,,0,0,NA,NA,NA,NA,1,0,0
0.31999500002712,"",,2,275,1,1,1,32.1376,-0.00740738113721212,-1.49011611938477e-08,0,0,0,1,0,1,0,1,218716,2021-05-19_09h02.33.476,controlmir,2020.1.3,Win32,60,SV_5stERquS1sZB8qO,,,,,,0,0,NA,NA,NA,NA,1,0,0
0.336709999945015,"",,2,275,1,1,1,32.1376,-0.00740738113721212,-1.49011611938477e-08,0,0,0,1,0,1,0,1,218716,2021-05-19_09h02.33.476,controlmir,2020.1.3,Win32,60,SV_5stERquS1sZB8qO,,,,,,0,0,NA,NA,NA,NA,1,0,0
0.353309999918565,"",,2,275,1,1,1,32.1376,-0.00740738113721212,-1.49011611938477e-08,0,0,0,1,0,1,0,1,218716,2021-05-19_09h02.33.476,controlmir,2020.1.3,Win32,60,SV_5stERquS1sZB8qO,,,,,,0,0,NA,NA,NA,NA,1,0,0
0.369984999997541,"",,2,275,1,1,1,32.1376,-0.00740738113721212,-1.49011611938477e-08,0,0,0,1,0,1,0,1,218716,2021-05-19_09h02.33.476,controlmir,2020.1.3,Win32,60,SV_5stERquS1sZB8qO,,,,,,0,0,NA,NA,NA,NA,1,0,0
0.386689999839291,"",,2,275,1,1,1,32.1376,-0.00740738113721212,-1.49011611938477e-08,0,0,0,1,0,1,0,1,218716,2021-05-19_09h02.33.476,controlmir,2020.1.3,Win32,60,SV_5stERquS1sZB8qO,,,,,,0,0,NA,NA,NA,NA,1,0,0
0.403410000028089,"",,2,275,1,1,1,32.1376,-0.00740738113721212,-1.49011611938477e-08,0,0,0,1,0,1,0,1,218716,2021-05-19_09h02.33.476,controlmir,2020.1.3,Win32,60,SV_5stERquS1sZB8qO,,,,,,0,0,NA,NA,NA,NA,1,0,0
0.419894999824464,"",,2,275,1,1,1,32.1376,-0.00740738113721212,-1.49011611938477e-08,0,0,0,1,0,1,0,1,218716,2021-05-19_09h02.33.476,controlmir,2020.1.3,Win32,60,SV_5stERquS1sZB8qO,,,,,,0,0,NA,NA,NA,NA,1,0,0
0.436714999843389,"",,2,275,1,1,1,32.1376,-0.00740738113721212,-1.49011611938477e-08,0,0,0,1,0,1,0,1,218716,2021-05-19_09h02.33.476,controlmir,2020.1.3,Win32,60,SV_5stERquS1sZB8qO,,,,,,0,0,NA,NA,NA,NA,1,0,0
0.45331500004977,"",,2,275,1,1,1,32.1376,-0.00740738113721212,-1.49011611938477e-08,0,0,0,1,0,1,0,1,218716,2021-05-19_09h02.33.476,controlmir,2020.1.3,Win32,60,SV_5stERquS1sZB8qO,,,,,,0,0,NA,NA,NA,NA,1,0,0
0.469994999933988,"",,2,275,1,1,1,32.1376,-0.00740738113721212,-1.49011611938477e-08,0,0,0,1,0,1,0,1,218716,2021-05-19_09h02.33.476,controlmir,2020.1.3,Win32,60,SV_5stERquS1sZB8qO,,,,,,0,0,NA,NA,NA,NA,1,0,0
0.486514999996871,"",,2,275,1,1,1,32.1376,-0.00740738113721212,-1.49011611938477e-08,0,0,0,1,0,1,0,1,218716,2021-05-19_09h02.33.476,controlmir,2020.1.3,Win32,60,SV_5stERquS1sZB8qO,,,,,,0,0,NA,NA,NA,NA,1,0,0
0.503284999867901,"",,2,275,1,1,1,32.1376,-0.00740738113721212,-1.49011611938477e-08,0,0,0,1,0,1,0,1,218716,2021-05-19_09h02.33.476,controlmir,2020.1.3,Win32,60,SV_5stERquS1sZB8qO,,,,,,0,0,NA,NA,NA,NA,1,0,0
0.520014999900013,"",,2,275,1,1,1,32.1376,-0.00740738113721212,-1.49011611938477e-08,0,0,0,1,0,1,0,1,218716,2021-05-19_09h02.33.476,controlmir,2020.1.3,Win32,60,SV_5stERquS1sZB8qO,,,,,,0,0,NA,NA,NA,NA,1,0,0
0.536829999880865,"",,2,275,1,1,1,32.1376,-0.00740738113721212,-1.49011611938477e-08,0,0,0,1,0,1,0,1,218716,2021-05-19_09h02.33.476,controlmir,2020.1.3,Win32,60,SV_5stERquS1sZB8qO,,,,,,0,0,NA,NA,NA,NA,1,0,0
0.553274999838322,"",,2,275,1,1,1,32.1376,-0.00740738113721212,-1.49011611938477e-08,0,0,0,1,0,1,0,1,218716,2021-05-19_09h02.33.476,controlmir,2020.1.3,Win32,60,SV_5stERquS1sZB8qO,,,,,,0,0,NA,NA,NA,NA,1,0,0
0.569914999883622,"",,2,275,1,1,1,32.1376,-0.00740738113721212,-1.49011611938477e-08,0,0,0,1,0,1,0,1,218716,2021-05-19_09h02.33.476,controlmir,2020.1.3,Win32,60,SV_5stERquS1sZB8qO,,,,,,0,0,NA,NA,NA,NA,1,0,0
0.586634999839589,"",,2,275,1,1,1,32.1376,-0.00740738113721212,-1.49011611938477e-08,0,0,0,1,0,1,0,1,218716,2021-05-19_09h02.33.476,controlmir,2020.1.3,Win32,60,SV_5stERquS1sZB8qO,,,,,,0,0,NA,NA,NA,NA,1,0,0
0.603200000012294,"",,2,275,1,1,1,32.1376,-0.00740738113721212,-1.49011611938477e-08,0,0,0,1,0,1,0,1,218716,2021-05-19_09h02.33.476,controlmir,2020.1.3,Win32,60,SV_5stERquS1sZB8qO,,,,,,0,0,NA,NA,NA,NA,1,0,0
0.619974999921396,"",,2,275,1,1,1,32.1376,-0.00740738113721212,-1.49011611938477e-08,0,0,0,1,0,1,0,1,218716,2021-05-19_09h02.33.476,controlmir,2020.1.3,Win32,60,SV_5stERquS1sZB8qO,,,,,,0,0,NA,NA,NA,NA,1,0,0
0.636549999937415,"",,2,275,1,1,1,32.1376,-0.00740738113721212,-1.49011611938477e-08,0,0,0,1,0,1,0,1,218716,2021-05-19_09h02.33.476,controlmir,2020.1.3,Win32,60,SV_5stERquS1sZB8qO,,,,,,0,0,NA,NA,NA,NA,1,0,0
0.653255000011995,"",,2,275,1,1,1,32.1376,-0.00740738113721212,-1.49011611938477e-08,0,0,0,1,0,1,0,1,218716,2021-05-19_09h02.33.476,controlmir,2020.1.3,Win32,60,SV_5stERquS1sZB8qO,,,,,,0,0,NA,NA,NA,NA,1,0,0
0.670015000039712,"",,2,275,1,1,1,32.1376,-0.00740738113721212,-1.49011611938477e-08,0,0,0,1,0,1,0,1,218716,2021-05-19_09h02.33.476,controlmir,2020.1.3,Win32,60,SV_5stERquS1sZB8qO,,,,,,0,0,NA,NA,NA,NA,1,0,0
0.686579999979585,"",,2,275,1,1,1,32.1376,-0.00740738113721212,-1.49011611938477e-08,0,0,0,1,0,1,0,1,218716,2021-05-19_09h02.33.476,controlmir,2020.1.3,Win32,60,SV_5stERquS1sZB8qO,,,,,,0,0,NA,NA,NA,NA,1,0,0
0.703254999825731,"",,2,275,1,1,1,32.1376,-0.00740738113721212,-1.49011611938477e-08,0,0,0,1,0,1,0,1,218716,2021-05-19_09h02.33.476,controlmir,2020.1.3,Win32,60,SV_5stERquS1sZB8qO,,,,,,0,0,NA,NA,NA,NA,1,0,0
0.720065000001341,"",,2,275,1,1,1,32.1376,-0.00740738113721212,-1.49011611938477e-08,0,0,0,1,0,1,0,1,218716,2021-05-19_09h02.33.476,controlmir,2020.1.3,Win32,60,SV_5stERquS1sZB8qO,,,,,,0,0,NA,NA,NA,NA,1,0,0
0.736189999850467,"",,2,275,1,1,1,32.1376,-0.00740738113721212,-1.49011611938477e-08,0,0,0,1,0,1,0,1,218716,2021-05-19_09h02.33.476,controlmir,2020.1.3,Win32,60,SV_5stERquS1sZB8qO,,,,,,0,0,NA,NA,NA,NA,1,0,0
0.752894999925047,"",,2,275,1,1,1,32.1376,-0.00740738113721212,-1.49011611938477e-08,0,0,0,1,0,1,0,1,218716,2021-05-19_09h02.33.476,controlmir,2020.1.3,Win32,60,SV_5stERquS1sZB8qO,,,,,,0,0,NA,NA,NA,NA,1,0,0
0.769519999856129,"",,2,275,1,1,1,32.1376,-0.00740738113721212,-1.49011611938477e-08,0,0,0,1,0,1,0,1,218716,2021-05-19_09h02.33.476,controlmir,2020.1.3,Win32,60,SV_5stERquS1sZB8qO,,,,,,0,0,NA,NA,NA,NA,1,0,0
0.78611999982968,"",,2,275,1,1,1,32.1376,-0.00740738113721212,-1.49011611938477e-08,0,0,0,1,0,1,0,1,218716,2021-05-19_09h02.33.476,controlmir,2020.1.3,Win32,60,SV_5stERquS1sZB8qO,,,,,,0,0,NA,NA,NA,NA,1,0,0
0.802870000014082,"",,2,275,1,1,1,32.1376,-0.00740738113721212,-1.49011611938477e-08,0,0,0,1,0,1,0,1,218716,2021-05-19_09h02.33.476,controlmir,2020.1.3,Win32,60,SV_5stERquS1sZB8qO,,,,,,0,0,NA,NA,NA,NA,1,0,0
0.819475000025705,"",,2,275,1,1,1,32.1376,-0.00740738113721212,-1.49011611938477e-08,0,0,0,1,0,1,0,1,218716,2021-05-19_09h02.33.476,controlmir,2020.1.3,Win32,60,SV_5stERquS1sZB8qO,,,,,,0,0,NA,NA,NA,NA,1,0,0
0.836159999947995,"",,2,275,1,1,1,32.1376,-0.00740738113721212,-1.49011611938477e-08,0,0,0,1,0,1,0,1,218716,2021-05-19_09h02.33.476,controlmir,2020.1.3,Win32,60,SV_5stERquS1sZB8qO,,,,,,0,0,NA,NA,NA,NA,1,0,0
0.853179999860004,"",,2,275,1,1,1,32.1376,-0.00740738113721212,-1.49011611938477e-08,0,0,0,1,0,1,0,1,218716,2021-05-19_09h02.33.476,controlmir,2020.1.3,Win32,60,SV_5stERquS1sZB8qO,,,,,,0,0,NA,NA,NA,NA,1,0,0
0.869889999972656,"",,2,275,1,1,1,32.1376,-0.00740738113721212,-1.49011611938477e-08,0,0,0,1,0,1,0,1,218716,2021-05-19_09h02.33.476,controlmir,2020.1.3,Win32,60,SV_5stERquS1sZB8qO,,,,,,0,0,NA,NA,NA,NA,1,0,0
0.886509999865666,"",,2,275,1,1,1,32.1376,-0.00740738113721212,-1.49011611938477e-08,0,0,0,1,0,1,0,1,218716,2021-05-19_09h02.33.476,controlmir,2020.1.3,Win32,60,SV_5stERquS1sZB8qO,,,,,,0,0,NA,NA,NA,NA,1,0,0
0.903199999826029,"",,2,275,1,1,1,32.1376,-0.00740738113721212,-1.49011611938477e-08,0,0,0,1,0,1,0,1,218716,2021-05-19_09h02.33.476,controlmir,2020.1.3,Win32,60,SV_5stERquS1sZB8qO,,,,,,0,0,NA,NA,NA,NA,1,0,0
0.919770000036806,"",,2,275,1,1,1,32.1376,-0.00740738113721212,-1.49011611938477e-08,0,0,0,1,0,1,0,1,218716,2021-05-19_09h02.33.476,controlmir,2020.1.3,Win32,60,SV_5stERquS1sZB8qO,,,,,,0,0,NA,NA,NA,NA,1,0,0
0.936384999891743,"",,2,275,1,1,1,32.1376,-0.00740738113721212,-1.49011611938477e-08,0,0,0,1,0,1,0,1,218716,2021-05-19_09h02.33.476,controlmir,2020.1.3,Win32,60,SV_5stERquS1sZB8qO,,,,,,0,0,NA,NA,NA,NA,1,0,0
0.953119999961928,"",,2,275,1,1,1,32.1376,-0.00740738113721212,-1.49011611938477e-08,0,0,0,1,0,1,0,1,218716,2021-05-19_09h02.33.476,controlmir,2020.1.3,Win32,60,SV_5stERquS1sZB8qO,,,,,,0,0,NA,NA,NA,NA,1,0,0
0.969769999850541,"",,2,275,1,1,1,32.1376,-0.00740738113721212,-1.49011611938477e-08,0,0,0,1,0,1,0,1,218716,2021-05-19_09h02.33.476,controlmir,2020.1.3,Win32,60,SV_5stERquS1sZB8qO,,,,,,0,0,NA,NA,NA,NA,1,0,0
0.986455000005662,"",,2,275,1,1,1,32.1376,-0.00740738113721212,-1.49011611938477e-08,0,0,0,1,0,1,0,1,218716,2021-05-19_09h02.33.476,controlmir,2020.1.3,Win32,60,SV_5stERquS1sZB8qO,,,,,,0,0,NA,NA,NA,NA,1,0,0
1.00314499996603,"",,2,275,1,1,1,32.1376,-0.00740738113721212,-1.49011611938477e-08,0,0,0,1,0,1,0,1,218716,2021-05-19_09h02.33.476,controlmir,2020.1.3,Win32,60,SV_5stERquS1sZB8qO,,,,,,0,0,NA,NA,NA,NA,1,0,0
1.01974499993958,"",,2,275,1,1,1,32.1376,-0.00740738113721212,-1.49011611938477e-08,0,0,0,1,0,1,0,1,218716,2021-05-19_09h02.33.476,controlmir,2020.1.3,Win32,60,SV_5stERquS1sZB8qO,,,,,,0,0,NA,NA,NA,NA,1,0,0
1.03636999987066,"",,2,275,1,1,1,32.1376,-0.00740738113721212,-1.49011611938477e-08,0,0,0,1,0,1,0,1,218716,2021-05-19_09h02.33.476,controlmir,2020.1.3,Win32,60,SV_5stERquS1sZB8qO,,,,,,0,0,NA,NA,NA,NA,1,0,0
1.0531750000082,"",,2,275,1,1,1,32.1376,-0.00740738113721212,-1.49011611938477e-08,0,0,0,1,0,1,0,1,218716,2021-05-19_09h02.33.476,controlmir,2020.1.3,Win32,60,SV_5stERquS1sZB8qO,,,,,,0,0,NA,NA,NA,NA,1,0,0
1.06960499985144,"",,2,275,1,1,1,32.1376,-0.00740738113721212,-1.49011611938477e-08,0,0,0,1,0,1,0,1,218716,2021-05-19_09h02.33.476,controlmir,2020.1.3,Win32,60,SV_5stERquS1sZB8qO,,,,,,0,0,NA,NA,NA,NA,1,0,0
1.08644999982789,"",,2,275,1,1,1,32.1376,-0.00740738113721212,-1.49011611938477e-08,0,0,0,1,0,1,0,1,218716,2021-05-19_09h02.33.476,controlmir,2020.1.3,Win32,60,SV_5stERquS1sZB8qO,,,,,,0,0,NA,NA,NA,NA,1,0,0
1.10310499998741,"",,2,275,1,1,1,32.1376,-0.00740738113721212,-1.49011611938477e-08,0,0,0,1,0,1,0,1,218716,2021-05-19_09h02.33.476,controlmir,2020.1.3,Win32,60,SV_5stERquS1sZB8qO,,,,,,0,0,NA,NA,NA,NA,1,0,0
1.11975999991409,"",,2,275,1,1,1,32.1376,-0.00740738113721212,-1.49011611938477e-08,0,0,0,1,0,1,0,1,218716,2021-05-19_09h02.33.476,controlmir,2020.1.3,Win32,60,SV_5stERquS1sZB8qO,,,,,,0,0,NA,NA,NA,NA,1,0,0
1.13627499993891,"",,2,275,1,1,1,32.1376,-0.00740738113721212,-1.49011611938477e-08,0,0,0,1,0,1,0,1,218716,2021-05-19_09h02.33.476,controlmir,2020.1.3,Win32,60,SV_5stERquS1sZB8qO,,,,,,0,0,NA,NA,NA,NA,1,0,0
1.15315999998711,"",,2,275,1,1,1,32.1376,-0.00740738113721212,-1.49011611938477e-08,0,0,0,1,0,1,0,1,218716,2021-05-19_09h02.33.476,controlmir,2020.1.3,Win32,60,SV_5stERquS1sZB8qO,,,,,,0,0,NA,NA,NA,NA,1,0,0
1.16969499993138,"",,2,275,1,1,1,32.1376,-0.00740738113721212,-1.49011611938477e-08,0,0,0,1,0,1,0,1,218716,2021-05-19_09h02.33.476,controlmir,2020.1.3,Win32,60,SV_5stERquS1sZB8qO,,,,,,0,0,NA,NA,NA,NA,1,0,0
1.18622999987565,"",,2,275,1,1,1,32.1376,-0.00740738113721212,-1.49011611938477e-08,0,0,0,1,0,1,0,1,218716,2021-05-19_09h02.33.476,controlmir,2020.1.3,Win32,60,SV_5stERquS1sZB8qO,,,,,,0,0,NA,NA,NA,NA,1,0,0
1.20304999989457,"",,2,275,1,1,1,32.1376,-0.00740738113721212,-1.49011611938477e-08,0,0,0,1,0,1,0,1,218716,2021-05-19_09h02.33.476,controlmir,2020.1.3,Win32,60,SV_5stERquS1sZB8qO,,,,,,0,0,NA,NA,NA,NA,1,0,0
1.21967499982566,"",,2,275,1,1,1,32.1376,-0.00740738113721212,-1.49011611938477e-08,0,0,0,1,0,1,0,1,218716,2021-05-19_09h02.33.476,controlmir,2020.1.3,Win32,60,SV_5stERquS1sZB8qO,,,,,,0,0,NA,NA,NA,NA,1,0,0
1.23631499987096,"",,2,275,1,1,1,32.1376,-0.00740738113721212,-1.49011611938477e-08,0,0,0,1,0,1,0,1,218716,2021-05-19_09h02.33.476,controlmir,2020.1.3,Win32,60,SV_5stERquS1sZB8qO,,,,,,0,0,NA,NA,NA,NA,1,0,1
1.25291999988258,"",,2,275,1,1,1,32.1376,-0.00740738113721212,-1.49011611938477e-08,0,0,0,1,0,1,0,1,218716,2021-05-19_09h02.33.476,controlmir,2020.1.3,Win32,60,SV_5stERquS1sZB8qO,,,,,,0,0,NA,NA,NA,NA,1,0,1
1.27006999985315,"",,2,275,1,1,1,32.1376,-0.00740738113721212,-1.49011611938477e-08,0,0,0,1,0,1,0,1,218716,2021-05-19_09h02.33.476,controlmir,2020.1.3,Win32,60,SV_5stERquS1sZB8qO,,,,,,0,0,NA,NA,NA,NA,1,0,1
1.28621000004932,"",,2,275,1,1,1,32.1376,-0.00740738113721212,-1.49011611938477e-08,0,0,0,1,0,1,0,1,218716,2021-05-19_09h02.33.476,controlmir,2020.1.3,Win32,60,SV_5stERquS1sZB8qO,,,,,,0,0,NA,NA,NA,NA,1,0,1
1.30464500002563,"",,2,275,1,1,1,32.1376,-0.00740738113721212,-1.49011611938477e-08,0,0,0,1,0,1,0,1,218716,2021-05-19_09h02.33.476,controlmir,2020.1.3,Win32,60,SV_5stERquS1sZB8qO,,,,,,0,0,NA,NA,NA,NA,1,0,1
1.32696500001475,"",,2,275,1,1,1,32.1376,-0.00925917653021821,-0.00462964466876454,0,0,0,1,0,1,0,1,218716,2021-05-19_09h02.33.476,controlmir,2020.1.3,Win32,60,SV_5stERquS1sZB8qO,,,,,,0,0,NA,NA,NA,NA,1,0,1
1.34317500004545,"",,2,275,1,1,1,32.1376,-0.00925917653021821,-0.0111111263434092,0,0,0,1,0,1,0,1,218716,2021-05-19_09h02.33.476,controlmir,2020.1.3,Win32,60,SV_5stERquS1sZB8qO,,,,,,0,0,NA,NA,NA,NA,1,0,1
1.3719249998685,"",,2,275,1,1,1,32.1376,-0.00925917653021821,-0.0240740896926986,0,0,0,1,0,1,0,1,218716,2021-05-19_09h02.33.476,controlmir,2020.1.3,Win32,60,SV_5stERquS1sZB8qO,,,,,,0,0,NA,NA,NA,NA,1,0,1
1.38626499986276,"",,2,275,1,1,1,32.1376,-0.00925917653021821,-0.0277777935067813,0,0,0,1,0,1,0,1,218716,2021-05-19_09h02.33.476,controlmir,2020.1.3,Win32,60,SV_5stERquS1sZB8qO,,,,,,0,0,NA,NA,NA,NA,1,0,1
1.40289999986999,"",,2,275,1,1,1,32.1376,-0.00925917653021821,-0.0333333492279053,0,0,0,1,0,1,0,1,218716,2021-05-19_09h02.33.476,controlmir,2020.1.3,Win32,60,SV_5stERquS1sZB8qO,,,,,,0,0,NA,NA,NA,NA,1,0,1
1.41960999998264,"",,2,275,1,1,1,32.1376,-0.00925917653021821,-0.0361111270884673,0,0,0,1,0,1,0,1,218716,2021-05-19_09h02.33.476,controlmir,2020.1.3,Win32,60,SV_5stERquS1sZB8qO,,,,,,0,0,NA,NA,NA,NA,1,0,1
1.43632499990053,"",,2,275,1,1,1,32.1376,-0.00925917653021821,-0.0388889049490293,0,0,0,1,0,1,0,1,218716,2021-05-19_09h02.33.476,controlmir,2020.1.3,Win32,60,SV_5stERquS1sZB8qO,,,,,,0,0,NA,NA,NA,NA,1,0,1
1.45283999992535,"",,2,275,1,1,1,32.1376,-0.00925917653021821,-0.0407407568560706,0,0,0,1,0,1,0,1,218716,2021-05-19_09h02.33.476,controlmir,2020.1.3,Win32,60,SV_5stERquS1sZB8qO,,,,,,0,0,NA,NA,NA,NA,1,0,1
1.4694999998901,"",,2,275,1,1,1,32.1376,-0.00833330709073279,-0.0416666828095913,0,0,0,1,0,1,0,1,218716,2021-05-19_09h02.33.476,controlmir,2020.1.3,Win32,60,SV_5stERquS1sZB8qO,,,,,,0,0,NA,NA,NA,NA,1,0,1
1.48591499985196,"",,2,275,1,1,1,32.1376,-0.00833330709073279,-0.0416666828095913,0,0,0,1,0,1,0,1,218716,2021-05-19_09h02.33.476,controlmir,2020.1.3,Win32,60,SV_5stERquS1sZB8qO,,,,,,0,0,NA,NA,NA,NA,1,0,1
1.50358999986202,"",,2,275,1,1,1,32.1376,-0.00833330709073279,-0.0435185347166326,0,0,0,1,0,1,0,1,218716,2021-05-19_09h02.33.476,controlmir,2020.1.3,Win32,60,SV_5stERquS1sZB8qO,,,,,,0,0,NA,NA,NA,NA,1,0,1
1.51998999994248,"",,2,275,1,1,1,32.1376,-0.00833330709073279,-0.0472222385307153,0,0,0,1,0,1,0,1,218716,2021-05-19_09h02.33.476,controlmir,2020.1.3,Win32,60,SV_5stERquS1sZB8qO,,,,,,0,0,NA,NA,NA,NA,1,0,1
1.53659999999218,"",,2,275,1,1,1,32.1376,-0.00833330709073279,-0.0546296461588807,0,0,0,1,0,1,0,1,218716,2021-05-19_09h02.33.476,controlmir,2020.1.3,Win32,60,SV_5stERquS1sZB8qO,,,,,,0,0,NA,NA,NA,NA,1,0,1
1.55340499989688,"",,2,275,1,1,1,32.1376,-0.00555552923017078,-0.06759260950817,0,0,0,1,0,1,0,1,218716,2021-05-19_09h02.33.476,controlmir,2020.1.3,Win32,60,SV_5stERquS1sZB8qO,,,,,,0,0,NA,NA,NA,NA,1,0,1
1.57015000004321,"",,2,275,1,1,1,32.1376,-0.00370362080909419,-0.0796296469039387,0,0,0,1,0,1,0,1,218716,2021-05-19_09h02.33.476,controlmir,2020.1.3,Win32,60,SV_5stERquS1sZB8qO,,,,,,0,0,NA,NA,NA,NA,1,0,1
1.58660499984398,"",,2,275,1,1,1,32.1376,-0.000925842948532186,-0.0879629804856247,0,0,0,1,0,1,0,1,218716,2021-05-19_09h02.33.476,controlmir,2020.1.3,Win32,60,SV_5stERquS1sZB8qO,,,,,,0,0,NA,NA,NA,NA,1,0,1
1.60339999990538,"",,2,275,1,1,1,32.1376,2.64909532335069e-08,-0.0935185362067488,0,0,0,1,0,1,0,1,218716,2021-05-19_09h02.33.476,controlmir,2020.1.3,Win32,60,SV_5stERquS1sZB8qO,,,,,,0,0,NA,NA,NA,NA,1,0,1
1.620004999917,"",,2,275,1,1,1,32.1376,0.000925952444473902,-0.100000017881393,0,0,0,1,0,1,0,1,218716,2021-05-19_09h02.33.476,controlmir,2020.1.3,Win32,60,SV_5stERquS1sZB8qO,,,,,,0,0,NA,NA,NA,NA,1,0,1
1.6367799998261,"",,2,275,1,1,1,32.1376,0.000925952444473902,-0.104629647648997,0,0,0,1,0,1,0,1,218716,2021-05-19_09h02.33.476,controlmir,2020.1.3,Win32,60,SV_5stERquS1sZB8qO,,,,,,0,0,NA,NA,NA,NA,1,0,1
1.65342999994755,"",,2,275,1,1,1,32.1376,0.000925952444473902,-0.107407425509559,0,0,0,1,0,1,0,1,218716,2021-05-19_09h02.33.476,controlmir,2020.1.3,Win32,60,SV_5stERquS1sZB8qO,,,,,,0,0,NA,NA,NA,NA,1,0,1
1.67029000003822,"",,2,275,1,1,1,32.1376,0.000925952444473902,-0.110185203370121,0,0,0,1,0,1,0,1,218716,2021-05-19_09h02.33.476,controlmir,2020.1.3,Win32,60,SV_5stERquS1sZB8qO,,,,,,0,0,NA,NA,NA,NA,1,0,1
1.68723999988288,"",,2,275,1,1,1,32.1376,0.000925952444473902,-0.114814833137724,0,0,0,1,0,1,0,1,218716,2021-05-19_09h02.33.476,controlmir,2020.1.3,Win32,60,SV_5stERquS1sZB8qO,,,,,,0,0,NA,NA,NA,NA,1,0,1
1.70435499981977,"",,2,275,1,1,1,32.1376,0.000925952444473902,-0.119444462905327,0,0,0,1,0,1,0,1,218716,2021-05-19_09h02.33.476,controlmir,2020.1.3,Win32,60,SV_5stERquS1sZB8qO,,,,,,0,0,NA,NA,NA,NA,1,0,1
1.72060499992222,"",,2,275,1,1,1,32.1376,0.000925952444473902,-0.130555574347576,0,0,0,1,0,1,0,1,218716,2021-05-19_09h02.33.476,controlmir,2020.1.3,Win32,60,SV_5stERquS1sZB8qO,,,,,,0,0,NA,NA,NA,NA,1,0,1
1.73708499991335,"",,2,275,1,1,1,32.1376,0.000925952444473902,-0.141666685789824,0,0,0,1,0,1,0,1,218716,2021-05-19_09h02.33.476,controlmir,2020.1.3,Win32,60,SV_5stERquS1sZB8qO,,,,,,0,0,NA,NA,NA,NA,1,0,1
1.75342500000261,"",,2,275,1,1,1,32.1376,0.000925952444473902,-0.153703723185592,0,0,0,1,0,1,0,1,218716,2021-05-19_09h02.33.476,controlmir,2020.1.3,Win32,60,SV_5stERquS1sZB8qO,,,,,,0,0,NA,NA,NA,NA,1,0,1
1.76988499984145,"",,2,275,1,1,1,32.1376,0.00185193491202982,-0.162037056767278,0,0,0,1,0,1,0,1,218716,2021-05-19_09h02.33.476,controlmir,2020.1.3,Win32,60,SV_5stERquS1sZB8qO,,,,,,0,0,NA,NA,NA,NA,1,0,1
1.7865649999585,"",,2,275,1,1,1,32.1376,0.00185193491202982,-0.167592612488402,0,0,0,1,0,1,0,1,218716,2021-05-19_09h02.33.476,controlmir,2020.1.3,Win32,60,SV_5stERquS1sZB8qO,,,,,,0,0,NA,NA,NA,NA,1,0,1
1.80328999995254,"",,2,275,1,1,1,32.1376,0.00462971277259183,-0.173148168209526,0,0,0,1,0,1,0,1,218716,2021-05-19_09h02.33.476,controlmir,2020.1.3,Win32,60,SV_5stERquS1sZB8qO,,,,,,0,0,NA,NA,NA,NA,1,0,1
1.81991499988362,"",,2,275,1,1,1,32.1376,0.00462971277259183,-0.17870372393065,0,0,0,1,0,1,0,1,218716,2021-05-19_09h02.33.476,controlmir,2020.1.3,Win32,60,SV_5stERquS1sZB8qO,,,,,,0,0,NA,NA,NA,NA,1,0,1
1.83651499985717,"",,2,275,1,1,1,32.1376,0.00555558221207725,-0.185185205605295,0,0,0,1,0,1,0,1,218716,2021-05-19_09h02.33.476,controlmir,2020.1.3,Win32,60,SV_5stERquS1sZB8qO,,,,,,0,0,NA,NA,NA,NA,1,0,1
1.85348000004888,"",,2,275,1,1,1,32.1376,0.00740749063315383,-0.190740761326419,0,0,0,1,0,1,0,1,218716,2021-05-19_09h02.33.476,controlmir,2020.1.3,Win32,60,SV_5stERquS1sZB8qO,,,,,,0,0,NA,NA,NA,NA,1,0,1
1.87022499996237,"",,2,275,1,1,1,32.1376,0.00740749063315383,-0.197222243001064,0,0,0,1,0,1,0,1,218716,2021-05-19_09h02.33.476,controlmir,2020.1.3,Win32,60,SV_5stERquS1sZB8qO,,,,,,0,0,NA,NA,NA,NA,1,0,1
1.88690999988467,"",,2,275,1,1,1,32.1376,0.00740749063315383,-0.200000020861626,0,0,0,1,0,1,0,1,218716,2021-05-19_09h02.33.476,controlmir,2020.1.3,Win32,60,SV_5stERquS1sZB8qO,,,,,,0,0,NA,NA,NA,NA,1,0,1
1.90339499991387,"",,2,275,1,1,1,32.1376,0.00833336007263925,-0.207407428489791,0,0,0,1,0,1,0,1,218716,2021-05-19_09h02.33.476,controlmir,2020.1.3,Win32,60,SV_5stERquS1sZB8qO,,,,,,0,0,NA,NA,NA,NA,1,0,1
1.92007999983616,"",,2,275,1,1,1,32.1376,0.00833336007263925,-0.215740818585512,0,0,0,1,0,1,0,1,218716,2021-05-19_09h02.33.476,controlmir,2020.1.3,Win32,60,SV_5stERquS1sZB8qO,,,,,,0,0,NA,NA,NA,NA,1,0,1
1.93686999985948,"",,2,275,1,1,1,32.1376,0.00925928602615992,-0.225000021606684,0,0,0,1,0,1,0,1,218716,2021-05-19_09h02.33.476,controlmir,2020.1.3,Win32,60,SV_5stERquS1sZB8qO,,,,,,0,0,NA,NA,NA,NA,1,0,1
1.9532599998638,"",,2,275,1,1,1,32.1376,0.0111111379332013,-0.232407485748884,0,0,0,1,0,1,0,1,218716,2021-05-19_09h02.33.476,controlmir,2020.1.3,Win32,60,SV_5stERquS1sZB8qO,,,,,,0,0,NA,NA,NA,NA,1,0,1
1.96997500001453,"",,2,275,1,1,1,32.1376,0.0111111379332013,-0.235185263609446,0,0,0,1,0,1,0,1,218716,2021-05-19_09h02.33.476,controlmir,2020.1.3,Win32,60,SV_5stERquS1sZB8qO,,,,,,0,0,NA,NA,NA,NA,1,0,1
1.98694500001147,"",,2,275,1,1,1,32.1376,0.0138889157937633,-0.250000022351742,0,0,0,1,0,1,0,1,218716,2021-05-19_09h02.33.476,controlmir,2020.1.3,Win32,60,SV_5stERquS1sZB8qO,,,,,,0,0,NA,NA,NA,NA,1,0,1
2.00326999998651,"",,2,275,1,1,1,32.1376,0.0148148417472839,-0.257407486493942,0,0,0,1,0,1,0,1,218716,2021-05-19_09h02.33.476,controlmir,2020.1.3,Win32,60,SV_5stERquS1sZB8qO,,,,,,0,0,NA,NA,NA,NA,1,0,1
2.01992999995127,"",,2,275,1,1,1,32.1376,0.0157408242148399,-0.267592615468635,0,0,0,1,0,1,0,1,218716,2021-05-19_09h02.33.476,controlmir,2020.1.3,Win32,60,SV_5stERquS1sZB8qO,,,,,,0,0,NA,NA,NA,NA,1,0,1
2.03665999998339,"",,2,275,1,1,1,32.1376,0.0166666936543253,-0.273148171189759,0,0,0,1,0,1,0,1,218716,2021-05-19_09h02.33.476,controlmir,2020.1.3,Win32,60,SV_5stERquS1sZB8qO,,,,,,0,0,NA,NA,NA,NA,1,0,1
2.05315000005066,"",,2,275,1,1,1,32.1376,0.0175926196078459,-0.279629709378438,0,0,0,1,0,1,0,1,218716,2021-05-19_09h02.33.476,controlmir,2020.1.3,Win32,60,SV_5stERquS1sZB8qO,,,,,,0,0,NA,NA,NA,NA,1,0,1
2.07012999989092,"",,2,275,1,1,1,32.1376,0.0175926196078459,-0.286111134539048,0,0,0,1,0,1,0,1,218716,2021-05-19_09h02.33.476,controlmir,2020.1.3,Win32,60,SV_5stERquS1sZB8qO,,,,,,0,0,NA,NA,NA,NA,1,0,1
2.08655999996699,"",,2,275,1,1,1,32.1376,0.0194444715148873,-0.292592616213693,0,0,0,1,0,1,0,1,218716,2021-05-19_09h02.33.476,controlmir,2020.1.3,Win32,60,SV_5stERquS1sZB8qO,,,,,,0,0,NA,NA,NA,NA,1,0,1
2.10340499994345,"",,2,275,1,1,1,32.1376,0.0194444715148873,-0.300925949795379,0,0,0,1,0,1,0,1,218716,2021-05-19_09h02.33.476,controlmir,2020.1.3,Win32,60,SV_5stERquS1sZB8qO,,,,,,0,0,NA,NA,NA,NA,1,0,1
2.1199000000488,"",,2,275,1,1,1,32.1376,0.0222222493754493,-0.308333357423544,0,0,0,1,0,1,0,1,218716,2021-05-19_09h02.33.476,controlmir,2020.1.3,Win32,60,SV_5stERquS1sZB8qO,,,,,,0,0,NA,NA,NA,NA,1,0,1
2.1366449999623,"",,2,275,1,1,1,32.1376,0.0222222493754493,-0.314814839098189,0,0,0,1,0,1,0,1,218716,2021-05-19_09h02.33.476,controlmir,2020.1.3,Win32,60,SV_5stERquS1sZB8qO,,,,,,0,0,NA,NA,NA,NA,1,0,1
2.15322999982163,"",,2,275,1,1,1,32.1376,0.0222222493754493,-0.326851933007993,0,0,0,1,0,1,0,1,218716,2021-05-19_09h02.33.476,controlmir,2020.1.3,Win32,60,SV_5stERquS1sZB8qO,,,,,,0,0,NA,NA,NA,NA,1,0,1
2.16984999994747,"",,2,275,1,1,1,32.1376,0.0222222493754493,-0.331481506261561,0,0,0,1,0,1,0,1,218716,2021-05-19_09h02.33.476,controlmir,2020.1.3,Win32,60,SV_5stERquS1sZB8qO,,,,,,0,0,NA,NA,NA,NA,1,0,1
2.18638499989174,"",,2,275,1,1,1,32.1376,0.0222222493754493,-0.337963044450241,0,0,0,1,0,1,0,1,218716,2021-05-19_09h02.33.476,controlmir,2020.1.3,Win32,60,SV_5stERquS1sZB8qO,,,,,,0,0,NA,NA,NA,NA,1,0,1
2.20299999997951,"",,2,275,1,1,1,32.1376,0.0222222493754493,-0.348148173424933,0,0,0,1,0,1,0,1,218716,2021-05-19_09h02.33.476,controlmir,2020.1.3,Win32,60,SV_5stERquS1sZB8qO,,,,,,0,0,NA,NA,NA,NA,1,0,1
2.21980499988422,"",,2,275,1,1,1,32.1376,0.0222222493754493,-0.355555581053098,0,0,0,1,0,1,0,1,218716,2021-05-19_09h02.33.476,controlmir,2020.1.3,Win32,60,SV_5stERquS1sZB8qO,,,,,,0,0,NA,NA,NA,NA,1,1,1
2.23659999994561,"",,2,275,1,1,1,32.1376,0.0222222493754493,-0.361111136774222,0,0,0,1,0,1,0,1,218716,2021-05-19_09h02.33.476,controlmir,2020.1.3,Win32,60,SV_5stERquS1sZB8qO,,,,,,0,0,NA,NA,NA,NA,1,0,1
2.25317499996163,"",,3,275,1,1,1,32.1376,0.0212963799359639,-0.367592618448867,0,0,0,1,0,1,0,1,218716,2021-05-19_09h02.33.476,controlmir,2020.1.3,Win32,60,SV_5stERquS1sZB8qO,,,,,,0,0,NA,NA,NA,NA,1,1,1
2.26959999999963,"",,3,275,1,1,1,32.1376,0.0194444715148873,-0.375925952030553,0,0,0,1,0,1,0,1,218716,2021-05-19_09h02.33.476,controlmir,2020.1.3,Win32,60,SV_5stERquS1sZB8qO,,,,,,0,0,NA,NA,NA,NA,1,0,1
2.28662499994971,"",,3,275,1,1,1,32.1376,0.0194444715148873,-0.384259285612239,0,0,0,1,0,1,0,1,218716,2021-05-19_09h02.33.476,controlmir,2020.1.3,Win32,60,SV_5stERquS1sZB8qO,,,,,,0,0,NA,NA,NA,NA,1,0,1
2.30324499984272,"",,3,275,1,1,1,32.1376,0.0185186020754019,-0.392592619193925,0,0,0,1,0,1,0,1,218716,2021-05-19_09h02.33.476,controlmir,2020.1.3,Win32,60,SV_5stERquS1sZB8qO,,,,,,0,0,NA,NA,NA,NA,1,0,1
2.31953999982215,"",,3,275,1,1,1,32.1376,0.0185186020754019,-0.398148174915049,0,0,0,1,0,1,0,1,218716,2021-05-19_09h02.33.476,controlmir,2020.1.3,Win32,60,SV_5stERquS1sZB8qO,,,,,,0,0,NA,NA,NA,NA,1,0,1
2.33637999999337,"",,3,275,1,1,1,32.1376,0.0185186020754019,-0.402777804682652,0,0,0,1,0,1,0,1,218716,2021-05-19_09h02.33.476,controlmir,2020.1.3,Win32,60,SV_5stERquS1sZB8qO,,,,,,0,0,NA,NA,NA,NA,1,0,1
2.35324499988928,"",,3,275,1,1,1,32.1376,0.0175926196078459,-0.405555582543214,0,0,0,1,0,1,0,1,218716,2021-05-19_09h02.33.476,controlmir,2020.1.3,Win32,60,SV_5stERquS1sZB8qO,,,,,,0,0,NA,NA,NA,NA,1,0,1
2.369204999879,"",,3,275,1,1,1,32.1376,0.0175926196078459,-0.405555582543214,0,0,0,1,0,1,0,1,218716,2021-05-19_09h02.33.476,controlmir,2020.1.3,Win32,60,SV_5stERquS1sZB8qO,,,,,,0,0,NA,NA,NA,NA,1,0,1
2.38599499990232,"",,3,275,1,1,1,32.1376,0.0175926196078459,-0.405555582543214,0,0,0,1,0,1,0,1,218716,2021-05-19_09h02.33.476,controlmir,2020.1.3,Win32,60,SV_5stERquS1sZB8qO,,,,,,0,0,NA,NA,NA,NA,1,0,1
2.40314999991097,"",,3,275,1,1,1,32.1376,0.0175926196078459,-0.407407490964291,0,0,0,1,0,1,0,1,218716,2021-05-19_09h02.33.476,controlmir,2020.1.3,Win32,60,SV_5stERquS1sZB8qO,,,,,,0,0,NA,NA,NA,NA,1,0,1
2.41910499986261,"",,3,275,1,1,1,32.1376,0.0175926196078459,-0.407407490964291,0,0,0,1,0,1,0,1,218716,2021-05-19_09h02.33.476,controlmir,2020.1.3,Win32,60,SV_5stERquS1sZB8qO,,,,,,0,0,NA,NA,NA,NA,1,0,1
2.43565999995917,"",,3,275,1,1,1,32.1376,0.0175926196078459,-0.407407490964291,0,0,0,1,0,1,0,1,218716,2021-05-19_09h02.33.476,controlmir,2020.1.3,Win32,60,SV_5stERquS1sZB8qO,,,,,,0,0,NA,NA,NA,NA,1,0,1
2.45238499995321,"",,3,275,1,1,1,32.1376,0.0175926196078459,-0.407407490964291,0,0,0,1,0,1,0,1,218716,2021-05-19_09h02.33.476,controlmir,2020.1.3,Win32,60,SV_5stERquS1sZB8qO,,,,,,0,0,NA,NA,NA,NA,1,0,1
2.46909000002779,"",,3,275,1,1,1,32.1376,0.0175926196078459,-0.407407490964291,0,0,0,1,0,1,0,1,218716,2021-05-19_09h02.33.476,controlmir,2020.1.3,Win32,60,SV_5stERquS1sZB8qO,,,,,,0,0,NA,NA,NA,NA,1,0,1
2.48574999999255,"",,3,275,1,1,1,32.1376,0.0175926196078459,-0.407407490964291,0,0,0,1,0,1,0,1,218716,2021-05-19_09h02.33.476,controlmir,2020.1.3,Win32,60,SV_5stERquS1sZB8qO,,,,,,0,0,NA,NA,NA,NA,1,0,0
2.50243999995291,"",,3,275,1,1,1,32.1376,0.0175926196078459,-0.407407490964291,0,0,0,1,0,1,0,1,218716,2021-05-19_09h02.33.476,controlmir,2020.1.3,Win32,60,SV_5stERquS1sZB8qO,,,,,,0,0,NA,NA,NA,NA,1,0,0
2.5191249998752,"",,3,275,1,1,1,32.1376,0.0175926196078459,-0.407407490964291,0,0,0,1,0,1,0,1,218716,2021-05-19_09h02.33.476,controlmir,2020.1.3,Win32,60,SV_5stERquS1sZB8qO,,,,,,0,0,NA,NA,NA,NA,1,0,0
2.53578499983996,"",,3,275,1,1,1,32.1376,0.0175926196078459,-0.407407490964291,0,0,0,1,0,1,0,1,218716,2021-05-19_09h02.33.476,controlmir,2020.1.3,Win32,60,SV_5stERquS1sZB8qO,,,,,,0,0,NA,NA,NA,NA,1,0,0
2.55230999994092,"",,3,275,1,1,1,32.1376,0.0175926196078459,-0.407407490964291,0,0,0,1,0,1,0,1,218716,2021-05-19_09h02.33.476,controlmir,2020.1.3,Win32,60,SV_5stERquS1sZB8qO,,,,,,0,0,NA,NA,NA,NA,1,0,0
2.56902999989688,"",,3,275,1,1,1,32.1376,0.0175926196078459,-0.407407490964291,0,0,0,1,0,1,0,1,218716,2021-05-19_09h02.33.476,controlmir,2020.1.3,Win32,60,SV_5stERquS1sZB8qO,,,,,,0,0,NA,NA,NA,NA,1,0,0
2.58572999993339,"",,3,275,1,1,1,32.1376,0.0175926196078459,-0.407407490964291,0,0,0,1,0,1,0,1,218716,2021-05-19_09h02.33.476,controlmir,2020.1.3,Win32,60,SV_5stERquS1sZB8qO,,,,,,0,0,NA,NA,NA,NA,1,0,0
2.60230499994941,"",,3,275,1,1,1,32.1376,0.0175926196078459,-0.407407490964291,0,0,0,1,0,1,0,1,218716,2021-05-19_09h02.33.476,controlmir,2020.1.3,Win32,60,SV_5stERquS1sZB8qO,,,,,,0,0,NA,NA,NA,NA,1,0,0
2.61912499996834,"",,3,275,1,1,1,32.1376,0.0175926196078459,-0.407407490964291,0,0,0,1,0,1,0,1,218716,2021-05-19_09h02.33.476,controlmir,2020.1.3,Win32,60,SV_5stERquS1sZB8qO,,,,,,0,0,NA,NA,NA,NA,1,0,0
2.63575499993749,"",,3,275,1,1,1,32.1376,0.0175926196078459,-0.407407490964291,0,0,0,1,0,1,0,1,218716,2021-05-19_09h02.33.476,controlmir,2020.1.3,Win32,60,SV_5stERquS1sZB8qO,,,,,,0,0,NA,NA,NA,NA,1,0,0
2.65231000003405,"",,3,275,1,1,1,32.1376,0.0175926196078459,-0.407407490964291,0,0,0,1,0,1,0,1,218716,2021-05-19_09h02.33.476,controlmir,2020.1.3,Win32,60,SV_5stERquS1sZB8qO,,,,,,0,0,NA,NA,NA,NA,1,0,0
2.66891999985091,"",,3,275,1,1,1,32.1376,0.0175926196078459,-0.407407490964291,0,0,0,1,0,1,0,1,218716,2021-05-19_09h02.33.476,controlmir,2020.1.3,Win32,60,SV_5stERquS1sZB8qO,,,,,,0,0,NA,NA,NA,NA,1,0,0
2.68571499991231,"",,3,275,1,1,1,32.1376,0.0175926196078459,-0.407407490964291,0,0,0,1,0,1,0,1,218716,2021-05-19_09h02.33.476,controlmir,2020.1.3,Win32,60,SV_5stERquS1sZB8qO,,,,,,0,0,NA,NA,NA,NA,1,0,0
2.70188499987125,"",,3,275,1,1,1,32.1376,0.0175926196078459,-0.407407490964291,0,0,0,1,0,1,0,1,218716,2021-05-19_09h02.33.476,controlmir,2020.1.3,Win32,60,SV_5stERquS1sZB8qO,,,,,,0,0,NA,NA,NA,NA,1,0,0
2.71873999992386,"",,3,275,1,1,1,32.1376,0.0175926196078459,-0.407407490964291,0,0,0,1,0,1,0,1,218716,2021-05-19_09h02.33.476,controlmir,2020.1.3,Win32,60,SV_5stERquS1sZB8qO,,,,,,0,0,NA,NA,NA,NA,1,0,0
2.73554999986663,"",,3,275,1,1,1,32.1376,0.0175926196078459,-0.407407490964291,0,0,0,1,0,1,0,1,218716,2021-05-19_09h02.33.476,controlmir,2020.1.3,Win32,60,SV_5stERquS1sZB8qO,,,,,,0,0,NA,NA,NA,NA,1,0,0
2.75193499983288,"",,3,275,1,1,1,32.1376,0.0175926196078459,-0.407407490964291,0,0,0,1,0,1,0,1,218716,2021-05-19_09h02.33.476,controlmir,2020.1.3,Win32,60,SV_5stERquS1sZB8qO,,,,,,0,0,NA,NA,NA,NA,1,0,0
2.7694949998986,"",,3,275,1,1,1,32.1376,0.0175926196078459,-0.406481508496735,0,0,0,1,0,1,0,1,218716,2021-05-19_09h02.33.476,controlmir,2020.1.3,Win32,60,SV_5stERquS1sZB8qO,,,,,,0,0,NA,NA,NA,NA,1,0,0
2.78601999999955,"",,3,275,1,1,1,32.1376,0.0175926196078459,-0.404629713103729,0,0,0,1,0,1,0,1,218716,2021-05-19_09h02.33.476,controlmir,2020.1.3,Win32,60,SV_5stERquS1sZB8qO,,,,,,0,0,NA,NA,NA,NA,1,0,0
2.80226000002585,"",,3,275,1,1,1,32.1376,0.0175926196078459,-0.404629713103729,0,0,0,1,0,1,0,1,218716,2021-05-19_09h02.33.476,controlmir,2020.1.3,Win32,60,SV_5stERquS1sZB8qO,,,,,,0,0,NA,NA,NA,NA,1,0,0
2.81894499994814,"",,3,275,1,1,1,32.1376,0.0175926196078459,-0.404629713103729,0,0,0,1,0,1,0,1,218716,2021-05-19_09h02.33.476,controlmir,2020.1.3,Win32,60,SV_5stERquS1sZB8qO,,,,,,0,0,NA,NA,NA,NA,1,0,0
2.83555499999784,"",,3,275,1,1,1,32.1376,0.0175926196078459,-0.404629713103729,0,0,0,1,0,1,0,1,218716,2021-05-19_09h02.33.476,controlmir,2020.1.3,Win32,60,SV_5stERquS1sZB8qO,,,,,,0,0,NA,NA,NA,NA,1,0,0
2.85226999991573,"",,3,275,1,1,1,32.1376,0.0175926196078459,-0.404629713103729,0,0,0,1,0,1,0,1,218716,2021-05-19_09h02.33.476,controlmir,2020.1.3,Win32,60,SV_5stERquS1sZB8qO,,,,,,0,0,NA,NA,NA,NA,1,0,0
2.8688850000035,"",,3,275,1,1,1,32.1376,0.0175926196078459,-0.404629713103729,0,0,0,1,0,1,0,1,218716,2021-05-19_09h02.33.476,controlmir,2020.1.3,Win32,60,SV_5stERquS1sZB8qO,,,,,,0,0,NA,NA,NA,NA,1,0,0
2.88542499998584,"",,3,275,1,1,1,32.1376,0.0175926196078459,-0.404629713103729,0,0,0,1,0,1,0,1,218716,2021-05-19_09h02.33.476,controlmir,2020.1.3,Win32,60,SV_5stERquS1sZB8qO,,,,,,0,0,NA,NA,NA,NA,1,0,0
2.90220999997109,"",,3,275,1,1,1,32.1376,0.0175926196078459,-0.404629713103729,0,0,0,1,0,1,0,1,218716,2021-05-19_09h02.33.476,controlmir,2020.1.3,Win32,60,SV_5stERquS1sZB8qO,,,,,,0,0,NA,NA,NA,NA,1,0,0
2.91896999999881,"",,3,275,1,1,1,32.1376,0.0175926196078459,-0.404629713103729,0,0,0,1,0,1,0,1,218716,2021-05-19_09h02.33.476,controlmir,2020.1.3,Win32,60,SV_5stERquS1sZB8qO,,,,,,0,0,NA,NA,NA,NA,1,0,0
2.93550999998115,"",,3,275,1,1,1,32.1376,0.0175926196078459,-0.404629713103729,0,0,0,1,0,1,0,1,218716,2021-05-19_09h02.33.476,controlmir,2020.1.3,Win32,60,SV_5stERquS1sZB8qO,,,,,,0,0,NA,NA,NA,NA,1,0,0
2.95222499989904,"",,3,275,1,1,1,32.1376,0.0175926196078459,-0.404629713103729,0,0,0,1,0,1,0,1,218716,2021-05-19_09h02.33.476,controlmir,2020.1.3,Win32,60,SV_5stERquS1sZB8qO,,,,,,0,0,NA,NA,NA,NA,1,0,0
2.96888999990188,"",,3,275,1,1,1,32.1376,0.0175926196078459,-0.404629713103729,0,0,0,1,0,1,0,1,218716,2021-05-19_09h02.33.476,controlmir,2020.1.3,Win32,60,SV_5stERquS1sZB8qO,,,,,,0,0,NA,NA,NA,NA,1,0,0
2.98548000003211,"",,3,275,1,1,1,32.1376,0.0175926196078459,-0.404629713103729,0,0,0,1,0,1,0,1,218716,2021-05-19_09h02.33.476,controlmir,2020.1.3,Win32,60,SV_5stERquS1sZB8qO,,,,,,0,0,NA,NA,NA,NA,1,0,0
